File: Aldo/Propulsion/Datasets/Results/HoveringCurrentFilteredCombinations.csv
,Capacity (mah),Nominal voltage (V),Cells configuration,Discharge (C),Battery height (mm),Bettry length (mm),Battery width (mm),Battery weight (g),Motor name,Shaft diameter (mm),Motor diameter (mm),Motor height (mm),Magnetic poles,KV (rpm/V),Motor weight (g),No load current (A),Resistance (Ohm),Propeller Name,Propeller diameter (in),Propeller pitch (in),Propeller weight (g),Propeller material,Total weight (g),Peak rotational speed (rpm),Peak torque (Nm),Peak current (A),Peak thrust (kgf),Total thrust (kgf),Hovering rotational speed (rpm),Hovering torque (Nm),Hovering current (A),Hovering PWM,Hovering time (m)
1324,450,7.4,2S1P,25,11.0,56.0,31.0,28.0,TMOTOR V2208 V2.0,4.0,27.6,31.95,,1950,37.2,,0.052,Carbon Fiber 5030,5.0,3.0,2.18,Carbon Fiber,185.52,14180.8,0.0120369,2.45797,0.152462,0.609849,8824.67,0.00500508,1.02205,0.618732,6.60435
1482,450,7.4,2S1P,25,11.0,56.0,31.0,28.0,TMOTOR V2207 V2.0,4.0,27.5,31.35,,1750,35.1,,0.059,Gemfan 6030 Thick hub,6.0,3.0,5.23,Plastic,189.32,12607,0.0181293,3.32237,0.204738,0.818951,6706.65,0.0056401,1.0336,0.526129,6.53055
1824,450,11.1,3S1P,25,15.0,56.0,31.0,45.0,DYS D2822-14,3.175,28.0,22.0,,1450,38.0,,0.112,6030 Carbon Nylon,6.0,3.0,2.22,Carbon Nylon,205.88,15444.2,0.0263917,4.00742,0.299867,1.19947,6706.65,0.0056401,0.856414,0.425333,7.8817
1849,450,11.1,3S1P,25,15.0,56.0,31.0,45.0,DYS D2812-14,3.175,28.0,12.0,,1600,22.0,,0.27,Gemfan 5040 R,5.0,4.0,3.0,ABS,145.0,15576.5,0.0301667,5.05448,0.288211,1.15284,6908.24,0.00670332,1.12315,0.416298,6.00987
2088,450,11.1,3S1P,25,15.0,56.0,31.0,45.0,TMOTOR V2208 V2.0,4.0,27.6,31.95,,1750,36.9,,0.065,6030 Carbon Nylon,6.0,3.0,2.22,Carbon Nylon,201.48,18645.5,0.037395,6.85298,0.427295,1.70918,6706.65,0.0056401,1.0336,0.351311,6.53055
2172,450,11.1,3S1P,25,15.0,56.0,31.0,45.0,TMOTOR P2207 V2.0,4.0,28.1,31.0,,1750,33.9,,0.0612,6030 Carbon Nylon,6.0,3.0,2.22,Carbon Nylon,189.48,18687.9,0.0375527,6.88189,0.429127,1.71651,6706.65,0.0056401,1.0336,0.350957,6.53055
2178,450,11.1,3S1P,25,15.0,56.0,31.0,45.0,TMOTOR P2207 V2.0,4.0,28.1,31.0,,1750,33.9,,0.0612,Gemfan 6030 Thick hub,6.0,3.0,5.23,Plastic,201.52,18687.9,0.0375527,6.88189,0.429127,1.71651,6706.65,0.0056401,1.0336,0.350957,6.53055
2208,450,11.1,3S1P,25,15.0,56.0,31.0,45.0,TMOTOR P2505,4.0,30.4,28.8,,1850,31.25,,0.069,6030 Carbon Nylon,6.0,3.0,2.22,Carbon Nylon,178.88,19527.7,0.0407338,7.89142,0.466093,1.86437,6706.65,0.0056401,1.09267,0.333388,6.17755
2256,450,11.1,3S1P,25,15.0,56.0,31.0,45.0,TMOTOR V2207 V2.0,4.0,27.5,31.35,,1750,35.1,,0.059,6030 Carbon Nylon,6.0,3.0,2.22,Carbon Nylon,194.28,18712.7,0.0376448,6.89877,0.430196,1.72078,6706.65,0.0056401,1.0336,0.350752,6.53055
2262,450,11.1,3S1P,25,15.0,56.0,31.0,45.0,TMOTOR V2207 V2.0,4.0,27.5,31.35,,1750,35.1,,0.059,Gemfan 6030 Thick hub,6.0,3.0,5.23,Plastic,206.32,18712.7,0.0376448,6.89877,0.430196,1.72078,6706.65,0.0056401,1.0336,0.350752,6.53055
2368,450,11.1,3S1P,75,22.5,68.0,17.5,57.0,DYS D2225-12,3.175,22.0,25.0,,2000,32.0,,0.143,Carbon Fiber 5030,5.0,3.0,2.18,Carbon Fiber,193.72,20742.9,0.0243261,5.09478,0.31166,1.24664,8824.67,0.00500508,1.04826,0.411012,6.43924
2629,450,11.1,3S1P,75,22.5,68.0,17.5,57.0,DYS D2812-14,3.175,28.0,12.0,,1600,22.0,,0.27,Gemfan 5040 R,5.0,4.0,3.0,ABS,157.0,15576.5,0.0301667,5.05448,0.288211,1.15284,6908.24,0.00670332,1.12315,0.416298,6.00987
2952,450,11.1,3S1P,75,22.5,68.0,17.5,57.0,TMOTOR P2207 V2.0,4.0,28.1,31.0,,1750,33.9,,0.0612,6030 Carbon Nylon,6.0,3.0,2.22,Carbon Nylon,201.48,18687.9,0.0375527,6.88189,0.429127,1.71651,6706.65,0.0056401,1.0336,0.350957,6.53055
2968,450,11.1,3S1P,75,22.5,68.0,17.5,57.0,TMOTOR P2207 V2.0,4.0,28.1,31.0,,1950,33.7,,0.0565,Carbon Fiber 5030,5.0,3.0,2.18,Carbon Fiber,200.52,21081.1,0.0250652,5.11839,0.321281,1.28513,8824.67,0.00500508,1.02205,0.412902,6.60435
2994,450,11.1,3S1P,75,22.5,68.0,17.5,57.0,TMOTOR P2505,4.0,30.4,28.8,,1850,31.25,,0.069,Gemfan 6030 Thick hub,6.0,3.0,5.23,Plastic,202.92,19527.7,0.0407338,7.89142,0.466093,1.86437,6706.65,0.0056401,1.09267,0.333388,6.17755
3040,450,11.1,3S1P,75,22.5,68.0,17.5,57.0,TMOTOR V2207 V2.0,4.0,27.5,31.35,,1750,35.1,,0.059,Carbon Fiber 5030,5.0,3.0,2.18,Carbon Fiber,206.12,19032.5,0.020746,3.8019,0.265105,1.06042,8824.67,0.00500508,0.917228,0.45917,7.35913
3148,450,14.8,4S1P,75,29.0,68.0,17.5,67.0,DYS D2225-12,3.175,22.0,25.0,,2000,32.0,,0.143,Carbon Fiber 5030,5.0,3.0,2.18,Carbon Fiber,203.72,27195.1,0.0401491,8.40881,0.518572,2.07429,8824.67,0.00500508,1.04826,0.308259,6.43924
3409,450,14.8,4S1P,75,29.0,68.0,17.5,67.0,DYS D2812-14,3.175,28.0,12.0,,1600,22.0,,0.27,Gemfan 5040 R,5.0,4.0,3.0,ABS,167.0,20160.9,0.0486186,8.14612,0.468109,1.87243,6908.24,0.00670332,1.12315,0.312223,6.00987
3768,450,14.8,4S1P,75,29.0,68.0,17.5,67.0,TMOTOR P2505,4.0,30.4,28.8,,1850,31.25,,0.069,6030 Carbon Nylon,6.0,3.0,2.22,Carbon Nylon,200.88,25705,0.0677307,13.1216,0.781419,3.12568,6706.65,0.0056401,1.09267,0.250041,6.17755
4709,800,7.4,2S1P,40,15.0,57.0,30.0,50.0,DYS D2225-12,3.175,22.0,25.0,,2000,32.0,,0.143,DALPROP 6040,6.0,4.0,4.32,Nylon,195.28,12536.1,0.0377956,7.91589,0.320992,1.28397,5250.18,0.00755382,1.58207,0.385315,7.58501
4712,800,7.4,2S1P,40,15.0,57.0,30.0,50.0,DYS D2225-12,3.175,22.0,25.0,,2000,32.0,,0.143,KingKong 6040,6.0,4.0,3.38,Plastic,191.52,12536.1,0.0377956,7.91589,0.320992,1.28397,5250.18,0.00755382,1.58207,0.385315,7.58501
4723,800,7.4,2S1P,40,15.0,57.0,30.0,50.0,DYS D2225-15,3.175,22.0,25.0,,1600,32.0,,0.203,Gemfan 5050 3-Blades BN,5.0,5.0,5.0,Poly Carbonate,198.0,10443.4,0.0256633,4.29993,0.194243,0.776974,5713.35,0.00840824,1.40881,0.521194,8.5178
4976,800,7.4,2S1P,40,15.0,57.0,30.0,50.0,DYS D2812-14,3.175,28.0,12.0,,1600,22.0,,0.27,KingKong 6040,6.0,4.0,3.38,Plastic,151.52,10029.4,0.0250149,4.19129,0.211031,0.844123,5250.18,0.00755382,1.26565,0.489607,9.48126
5224,800,7.4,2S1P,40,15.0,57.0,30.0,50.0,TMOTOR V2208 V2.0,4.0,27.6,31.95,,1950,37.2,,0.052,Carbon Fiber 5030,5.0,3.0,2.18,Carbon Fiber,207.52,14180.8,0.0120369,2.45797,0.152462,0.609849,8824.67,0.00500508,1.02205,0.618732,11.7411
5245,800,7.4,2S1P,40,15.0,57.0,30.0,50.0,TMOTOR V2306.5 V2.0,4.0,28.6,30.45,,1950,33.2,,0.067,Gemfan 5040 R,5.0,4.0,3.0,ABS,194.8,13787.8,0.0240726,4.91572,0.229149,0.916595,6908.24,0.00670332,1.36884,0.491135,8.76654
5252,800,7.4,2S1P,40,15.0,57.0,30.0,50.0,TMOTOR V2306.5 V2.0,4.0,28.6,30.45,,1950,33.2,,0.067,KingKong 6040,6.0,4.0,3.38,Plastic,196.32,13304.3,0.0421921,8.61579,0.358971,1.43589,5250.18,0.00755382,1.54252,0.377804,7.7795
5257,800,7.4,2S1P,40,15.0,57.0,30.0,50.0,TMOTOR V2306.5 V2.0,4.0,28.6,30.45,,2550,33.8,,0.047,Gemfan 5040 R,5.0,4.0,3.0,ABS,197.2,17653,0.0380255,10.1542,0.364661,1.45864,6908.24,0.00670332,1.79002,0.377466,6.70382
5269,800,7.4,2S1P,40,15.0,57.0,30.0,50.0,TMOTOR V2307 V2.0,4.0,28.6,30.95,,1950,35.1,,0.067,Gemfan 5040 R,5.0,4.0,3.0,ABS,202.4,13787.8,0.0240726,4.91572,0.229149,0.916595,6908.24,0.00670332,1.36884,0.491135,8.76654
5276,800,7.4,2S1P,40,15.0,57.0,30.0,50.0,TMOTOR V2307 V2.0,4.0,28.6,30.95,,1950,35.1,,0.067,KingKong 6040,6.0,4.0,3.38,Plastic,203.92,13304.3,0.0421921,8.61579,0.358971,1.43589,5250.18,0.00755382,1.54252,0.377804,7.7795
5281,800,7.4,2S1P,40,15.0,57.0,30.0,50.0,TMOTOR V2307 V2.0,4.0,28.6,30.95,,2550,35.5,,0.0415,Gemfan 5040 R,5.0,4.0,3.0,ABS,204.0,17781,0.038537,10.2907,0.369646,1.47858,6908.24,0.00670332,1.79002,0.376135,6.70382
5290,800,7.4,2S1P,40,15.0,57.0,30.0,50.0,TMOTOR V2307 V2.0,4.0,28.6,30.95,,2550,35.5,,0.0415,T-Motor 5143 Ultra-Light,5.1,4.3,3.7,Poly Carbonate,206.8,17504.3,0.0483291,12.9056,0.426159,1.70464,6305.09,0.00730837,1.95159,0.345078,6.14882
5309,800,7.4,2S1P,40,15.0,57.0,30.0,50.0,TMOTOR P2207 V2.0,4.0,28.1,31.0,,1950,33.7,,0.0565,DALPROP 6040,6.0,4.0,4.32,Nylon,202.08,13460.1,0.0431105,8.80331,0.366912,1.46765,5250.18,0.00755382,1.54252,0.375615,7.7795
5312,800,7.4,2S1P,40,15.0,57.0,30.0,50.0,TMOTOR P2207 V2.0,4.0,28.1,31.0,,1950,33.7,,0.0565,KingKong 6040,6.0,4.0,3.38,Plastic,198.32,13460.1,0.0431105,8.80331,0.366912,1.46765,5250.18,0.00755382,1.54252,0.375615,7.7795
5322,800,7.4,2S1P,40,15.0,57.0,30.0,50.0,TMOTOR P2207 V2.0,4.0,28.1,31.0,,2550,33.7,,0.042,Gemfan 6030 Thick hub,6.0,3.0,5.23,Plastic,205.72,17880.3,0.0346055,9.2409,0.394925,1.5797,6706.65,0.0056401,1.50611,0.363961,7.96756
5330,800,7.4,2S1P,40,15.0,57.0,30.0,50.0,TMOTOR P2505,4.0,30.4,28.8,,1850,31.25,,0.069,6045 plastic,6.0,4.5,6.0,Plastic,199.0,12439.9,0.0505519,9.79349,0.381987,1.52795,4749.42,0.0085136,1.64935,0.362305,7.27558
5333,800,7.4,2S1P,40,15.0,57.0,30.0,50.0,TMOTOR P2505,4.0,30.4,28.8,,1850,31.25,,0.069,DALPROP 6040,6.0,4.0,4.32,Nylon,192.28,12728.6,0.0388765,7.5316,0.330323,1.32129,5250.18,0.00755382,1.46341,0.39715,8.20001
5336,800,7.4,2S1P,40,15.0,57.0,30.0,50.0,TMOTOR P2505,4.0,30.4,28.8,,1850,31.25,,0.069,KingKong 6040,6.0,4.0,3.38,Plastic,188.52,12728.6,0.0388765,7.5316,0.330323,1.32129,5250.18,0.00755382,1.46341,0.39715,8.20001
5338,800,7.4,2S1P,40,15.0,57.0,30.0,50.0,TMOTOR P2505,4.0,30.4,28.8,,1850,31.25,,0.069,T-Motor 5143 Ultra-Light,5.1,4.3,3.7,Poly Carbonate,189.8,13000.6,0.0278758,5.40042,0.243621,0.974484,6305.09,0.00730837,1.41586,0.473763,8.4754
5381,800,7.4,2S1P,40,15.0,57.0,30.0,50.0,TMOTOR V2207 V2.0,4.0,27.5,31.35,,1750,35.1,,0.059,DALPROP 6040,6.0,4.0,4.32,Nylon,207.68,12263.4,0.0362887,6.65025,0.307991,1.23196,5250.18,0.00755382,1.38431,0.416457,8.66858
5388,800,7.4,2S1P,40,15.0,57.0,30.0,50.0,TMOTOR V2207 V2.0,4.0,27.5,31.35,,1950,35.2,,0.05,6030 Carbon Nylon,6.0,3.0,2.22,Carbon Nylon,199.68,13992.3,0.0219859,4.48961,0.249069,0.996275,6706.65,0.0056401,1.15173,0.472553,10.4191
5396,800,7.4,2S1P,40,15.0,57.0,30.0,50.0,TMOTOR V2207 V2.0,4.0,27.5,31.35,,1950,35.2,,0.05,KingKong 6040,6.0,4.0,3.38,Plastic,204.32,13559.9,0.0437035,8.92441,0.372042,1.48817,5250.18,0.00755382,1.54252,0.374261,7.7795
5404,800,7.4,2S1P,40,15.0,57.0,30.0,50.0,TMOTOR V2207 V2.0,4.0,27.5,31.35,,2550,34.3,,0.043,Carbon Fiber 5030,5.0,3.0,2.18,Carbon Fiber,195.92,18304.8,0.0193025,5.15446,0.246371,0.985484,8824.67,0.00500508,1.33653,0.475422,8.97846
5419,800,7.4,2S1P,40,15.0,57.0,30.0,50.0,TMOTOR V2306 V2.0,4.0,27.9,30.3,,1950,32.0,,0.064,Gemfan 5050 3-Blades BN,5.0,5.0,5.0,Poly Carbonate,198.0,13393.7,0.040665,8.30394,0.310096,1.24038,5713.35,0.00840824,1.71699,0.410785,6.98896
5429,800,7.4,2S1P,40,15.0,57.0,30.0,50.0,TMOTOR V2306 V2.0,4.0,27.9,30.3,,2400,32.0,,0.049,DALPROP 6040,6.0,4.0,4.32,Nylon,195.28,16004.7,0.0593884,14.9259,0.508087,2.03235,5250.18,0.00755382,1.89848,0.308189,6.32084
5434,800,7.4,2S1P,40,15.0,57.0,30.0,50.0,TMOTOR V2306 V2.0,4.0,27.9,30.3,,2400,32.0,,0.049,T-Motor 5143 Ultra-Light,5.1,4.3,3.7,Poly Carbonate,192.8,16482.1,0.0432378,10.8668,0.380577,1.52231,6305.09,0.00730837,1.83679,0.367179,6.53312
5749,800,11.1,3S1P,40,23.0,52.0,30.0,72.0,DYS D2812-14,3.175,28.0,12.0,,1600,22.0,,0.27,Gemfan 5040 R,5.0,4.0,3.0,ABS,172.0,15576.5,0.0301667,5.05448,0.288211,1.15284,6908.24,0.00670332,1.12315,0.416298,10.6842
5754,800,11.1,3S1P,40,23.0,52.0,30.0,72.0,DYS D2812-14,3.175,28.0,12.0,,1600,22.0,,0.27,Gemfan 6030 Thick hub,6.0,3.0,5.23,Plastic,180.92,15773.6,0.0274427,4.59806,0.312005,1.24802,6706.65,0.0056401,0.945009,0.400613,12.6983
6108,800,11.1,3S1P,40,23.0,52.0,30.0,72.0,TMOTOR P2505,4.0,30.4,28.8,,1850,31.25,,0.069,6030 Carbon Nylon,6.0,3.0,2.22,Carbon Nylon,205.88,19527.7,0.0407338,7.89142,0.466093,1.86437,6706.65,0.0056401,1.09267,0.333388,10.9823
6528,850,11.1,3S1P,45,22.2,60.0,30.4,76.0,DYS D2812-14,3.175,28.0,12.0,,1600,22.0,,0.27,6030 Carbon Nylon,6.0,3.0,2.22,Carbon Nylon,172.88,15773.6,0.0274427,4.59806,0.312005,1.24802,6706.65,0.0056401,0.945009,0.400613,13.4919
6533,850,11.1,3S1P,45,22.2,60.0,30.4,76.0,DYS D2812-14,3.175,28.0,12.0,,1600,22.0,,0.27,DALPROP 6040,6.0,4.0,4.32,Nylon,181.28,14279.2,0.048089,8.05739,0.410011,1.64004,5250.18,0.00755382,1.26565,0.326405,10.0738
6536,850,11.1,3S1P,45,22.2,60.0,30.4,76.0,DYS D2812-14,3.175,28.0,12.0,,1600,22.0,,0.27,KingKong 6040,6.0,4.0,3.38,Plastic,177.52,14279.2,0.048089,8.05739,0.410011,1.64004,5250.18,0.00755382,1.26565,0.326405,10.0738
7309,850,14.8,4S1P,45,29.0,60.0,31.0,99.0,DYS D2812-14,3.175,28.0,12.0,,1600,22.0,,0.27,Gemfan 5040 R,5.0,4.0,3.0,ABS,199.0,20160.9,0.0486186,8.14612,0.468109,1.87243,6908.24,0.00670332,1.12315,0.312223,11.352
8088,900,11.1,3S1P,45,19.5,52.0,33.5,80.0,DYS D2812-14,3.175,28.0,12.0,,1600,22.0,,0.27,6030 Carbon Nylon,6.0,3.0,2.22,Carbon Nylon,176.88,15773.6,0.0274427,4.59806,0.312005,1.24802,6706.65,0.0056401,0.945009,0.400613,14.2856
8093,900,11.1,3S1P,45,19.5,52.0,33.5,80.0,DYS D2812-14,3.175,28.0,12.0,,1600,22.0,,0.27,DALPROP 6040,6.0,4.0,4.32,Nylon,185.28,14279.2,0.048089,8.05739,0.410011,1.64004,5250.18,0.00755382,1.26565,0.326405,10.6664
8096,900,11.1,3S1P,45,19.5,52.0,33.5,80.0,DYS D2812-14,3.175,28.0,12.0,,1600,22.0,,0.27,KingKong 6040,6.0,4.0,3.38,Plastic,181.52,14279.2,0.048089,8.05739,0.410011,1.64004,5250.18,0.00755382,1.26565,0.326405,10.6664
8876,1000,7.4,2S1P,25,14.0,70.0,36.0,70.0,DYS D2812-14,3.175,28.0,12.0,,1600,22.0,,0.27,KingKong 6040,6.0,4.0,3.38,Plastic,171.52,10029.4,0.0250149,4.19129,0.211031,0.844123,5250.18,0.00755382,1.26565,0.489607,11.8516
9229,1000,7.4,2S1P,25,14.0,70.0,36.0,70.0,TMOTOR P2505,4.0,30.4,28.8,,1850,31.25,,0.069,Gemfan 5040 R,5.0,4.0,3.0,ABS,207.0,13145,0.0220378,4.26941,0.209479,0.837914,6908.24,0.00670332,1.29864,0.516729,11.5505
9648,1000,11.1,3S1P,25,19.0,72.0,36.0,96.0,DYS D2812-14,3.175,28.0,12.0,,1600,22.0,,0.27,6030 Carbon Nylon,6.0,3.0,2.22,Carbon Nylon,192.88,15773.6,0.0274427,4.59806,0.312005,1.24802,6706.65,0.0056401,0.945009,0.400613,15.8729
9653,1000,11.1,3S1P,25,19.0,72.0,36.0,96.0,DYS D2812-14,3.175,28.0,12.0,,1600,22.0,,0.27,DALPROP 6040,6.0,4.0,4.32,Nylon,201.28,14279.2,0.048089,8.05739,0.410011,1.64004,5250.18,0.00755382,1.26565,0.326405,11.8516
9656,1000,11.1,3S1P,25,19.0,72.0,36.0,96.0,DYS D2812-14,3.175,28.0,12.0,,1600,22.0,,0.27,KingKong 6040,6.0,4.0,3.38,Plastic,197.52,14279.2,0.048089,8.05739,0.410011,1.64004,5250.18,0.00755382,1.26565,0.326405,11.8516
11208,1050,11.1,3S1P,45,25.0,75.0,20.0,85.0,DYS D2812-14,3.175,28.0,12.0,,1600,22.0,,0.27,6030 Carbon Nylon,6.0,3.0,2.22,Carbon Nylon,181.88,15773.6,0.0274427,4.59806,0.312005,1.24802,6706.65,0.0056401,0.945009,0.400613,16.6665
11213,1050,11.1,3S1P,45,25.0,75.0,20.0,85.0,DYS D2812-14,3.175,28.0,12.0,,1600,22.0,,0.27,DALPROP 6040,6.0,4.0,4.32,Nylon,190.28,14279.2,0.048089,8.05739,0.410011,1.64004,5250.18,0.00755382,1.26565,0.326405,12.4442
11216,1050,11.1,3S1P,45,25.0,75.0,20.0,85.0,DYS D2812-14,3.175,28.0,12.0,,1600,22.0,,0.27,KingKong 6040,6.0,4.0,3.38,Plastic,186.52,14279.2,0.048089,8.05739,0.410011,1.64004,5250.18,0.00755382,1.26565,0.326405,12.4442
11988,1050,11.1,3S1P,75,19.0,71.0,36.0,98.0,DYS D2812-14,3.175,28.0,12.0,,1600,22.0,,0.27,6030 Carbon Nylon,6.0,3.0,2.22,Carbon Nylon,194.88,15773.6,0.0274427,4.59806,0.312005,1.24802,6706.65,0.0056401,0.945009,0.400613,16.6665
11993,1050,11.1,3S1P,75,19.0,71.0,36.0,98.0,DYS D2812-14,3.175,28.0,12.0,,1600,22.0,,0.27,DALPROP 6040,6.0,4.0,4.32,Nylon,203.28,14279.2,0.048089,8.05739,0.410011,1.64004,5250.18,0.00755382,1.26565,0.326405,12.4442
11996,1050,11.1,3S1P,75,19.0,71.0,36.0,98.0,DYS D2812-14,3.175,28.0,12.0,,1600,22.0,,0.27,KingKong 6040,6.0,4.0,3.38,Plastic,199.52,14279.2,0.048089,8.05739,0.410011,1.64004,5250.18,0.00755382,1.26565,0.326405,12.4442
13252,1050,14.8,4S1P,45,31.0,75.0,25.0,120.0,TMOTOR F15,1.5,14.4,13.3,,4500,7.8,,0.197,Carbon Fiber 5030,5.0,3.0,2.18,Carbon Fiber,159.92,36981.6,0.0708993,33.4105,0.924229,3.69692,8824.67,0.0050051,2.35861,0.163898,6.67766
14333,1300,7.4,2S1P,25,17.0,70.0,35.0,88.0,DYS D2812-14,3.175,28.0,12.0,,1600,22.0,,0.27,DALPROP 6040,6.0,4.0,4.32,Nylon,193.28,10029.4,0.0250149,4.19129,0.211031,0.844123,5250.18,0.00755382,1.26565,0.489607,15.4071
14338,1300,7.4,2S1P,25,17.0,70.0,35.0,88.0,DYS D2812-14,3.175,28.0,12.0,,1600,22.0,,0.27,T-Motor 5143 Ultra-Light,5.1,4.3,3.7,Poly Carbonate,190.8,10484.7,0.0187248,3.13737,0.162593,0.650373,6305.09,0.00730837,1.22453,0.577203,15.9245
14809,1300,7.4,2S1P,25,17.0,70.0,35.0,88.0,TMOTOR F15,1.5,14.4,13.3,,4500,7.8,,0.197,Gemfan 5040 R,5.0,4.0,3.0,ABS,131.2,17563.5,0.0376694,17.7513,0.361191,1.44476,6908.24,0.00670332,3.15887,0.291549,6.1731
14814,1300,7.4,2S1P,25,17.0,70.0,35.0,88.0,TMOTOR F15,1.5,14.4,13.3,,4500,7.8,,0.197,Gemfan 6030 Thick hub,6.0,3.0,5.23,Plastic,140.12,18264.1,0.0359923,16.961,0.411013,1.64405,6706.65,0.0056401,2.65784,0.272157,7.3368
15588,1300,11.1,3S1P,25,24.0,70.0,35.0,115.0,TMOTOR F15,1.5,14.4,13.3,,4500,7.8,,0.197,6030 Carbon Nylon,6.0,3.0,2.22,Carbon Nylon,155.08,24350.9,0.061278,28.8766,0.705827,2.82331,6706.64,0.00563998,2.65772,0.181436,7.33711
15594,1300,11.1,3S1P,25,24.0,70.0,35.0,115.0,TMOTOR F15,1.5,14.4,13.3,,4500,7.8,,0.197,Gemfan 6030 Thick hub,6.0,3.0,5.23,Plastic,167.12,24350.9,0.061278,28.8766,0.705827,2.82331,6706.64,0.00563998,2.65772,0.181436,7.33711
16368,1300,11.1,3S1P,25,24.0,70.0,35.0,115.0,TMOTOR F15,1.5,14.4,13.3,,4500,7.8,,0.197,6030 Carbon Nylon,6.0,3.0,2.22,Carbon Nylon,155.08,24350.9,0.061278,28.8766,0.705827,2.82331,6706.64,0.00563998,2.65772,0.181436,7.33711
16374,1300,11.1,3S1P,25,24.0,70.0,35.0,115.0,TMOTOR F15,1.5,14.4,13.3,,4500,7.8,,0.197,Gemfan 6030 Thick hub,6.0,3.0,5.23,Plastic,167.12,24350.9,0.061278,28.8766,0.705827,2.82331,6706.64,0.00563998,2.65772,0.181436,7.33711
17148,1300,11.1,3S1P,45,22.6,72.0,36.5,119.0,TMOTOR F15,1.5,14.4,13.3,,4500,7.8,,0.197,6030 Carbon Nylon,6.0,3.0,2.22,Carbon Nylon,159.08,24350.9,0.061278,28.8766,0.705827,2.82331,6706.64,0.00563998,2.65772,0.181436,7.33711
17154,1300,11.1,3S1P,45,22.6,72.0,36.5,119.0,TMOTOR F15,1.5,14.4,13.3,,4500,7.8,,0.197,Gemfan 6030 Thick hub,6.0,3.0,5.23,Plastic,171.12,24350.9,0.061278,28.8766,0.705827,2.82331,6706.64,0.00563998,2.65772,0.181436,7.33711
17928,1300,11.1,3S1P,75,22.3,72.0,36.0,122.0,TMOTOR F15,1.5,14.4,13.3,,4500,7.8,,0.197,6030 Carbon Nylon,6.0,3.0,2.22,Carbon Nylon,162.08,24350.9,0.061278,28.8766,0.705827,2.82331,6706.64,0.00563998,2.65772,0.181436,7.33711
17934,1300,11.1,3S1P,75,22.3,72.0,36.0,122.0,TMOTOR F15,1.5,14.4,13.3,,4500,7.8,,0.197,Gemfan 6030 Thick hub,6.0,3.0,5.23,Plastic,174.12,24350.9,0.061278,28.8766,0.705827,2.82331,6706.64,0.00563998,2.65772,0.181436,7.33711
18708,1300,11.1,3s1p,75,24.5,72.0,36.0,125.0,TMOTOR F15,1.5,14.4,13.3,,4500,7.8,,0.197,6030 Carbon Nylon,6.0,3.0,2.22,Carbon Nylon,165.08,24350.9,0.061278,28.8766,0.705827,2.82331,6706.64,0.00563998,2.65772,0.181436,7.33711
18714,1300,11.1,3s1p,75,24.5,72.0,36.0,125.0,TMOTOR F15,1.5,14.4,13.3,,4500,7.8,,0.197,Gemfan 6030 Thick hub,6.0,3.0,5.23,Plastic,177.12,24350.9,0.061278,28.8766,0.705827,2.82331,6706.64,0.00563998,2.65772,0.181436,7.33711
19488,1300,14.8,4s1p,45,29.8,72.0,36.5,154.0,TMOTOR F15,1.5,14.4,13.3,,4500,7.8,,0.197,6030 Carbon Nylon,6.0,3.0,2.22,Carbon Nylon,194.08,29680.8,0.0883756,41.646,1.02401,4.09604,6706.65,0.0056401,2.65784,0.136078,7.3368
19494,1300,14.8,4s1p,45,29.8,72.0,36.5,154.0,TMOTOR F15,1.5,14.4,13.3,,4500,7.8,,0.197,Gemfan 6030 Thick hub,6.0,3.0,5.23,Plastic,206.12,29680.8,0.0883756,41.646,1.02401,4.09604,6706.65,0.0056401,2.65784,0.136078,7.3368
20268,1300,14.8,4S1P,75,29.4,72.0,36.0,155.0,TMOTOR F15,1.5,14.4,13.3,,4500,7.8,,0.197,6030 Carbon Nylon,6.0,3.0,2.22,Carbon Nylon,195.08,29680.8,0.0883756,41.646,1.02401,4.09604,6706.65,0.0056401,2.65784,0.136078,7.3368
20274,1300,14.8,4S1P,75,29.4,72.0,36.0,155.0,TMOTOR F15,1.5,14.4,13.3,,4500,7.8,,0.197,Gemfan 6030 Thick hub,6.0,3.0,5.23,Plastic,207.12,29680.8,0.0883756,41.646,1.02401,4.09604,6706.65,0.0056401,2.65784,0.136078,7.3368
21048,1300,14.8,4S1P,75,32.0,72.0,36.0,160.0,TMOTOR F15,1.5,14.4,13.3,,4500,7.8,,0.197,6030 Carbon Nylon,6.0,3.0,2.22,Carbon Nylon,200.08,29680.8,0.0883756,41.646,1.02401,4.09604,6706.65,0.0056401,2.65784,0.136078,7.3368
21059,1300,14.8,4S1P,75,32.0,72.0,36.0,160.0,TMOTOR F15,1.5,14.4,13.3,,4500,7.8,,0.197,Gemfan 3052 - Flash,3.0,5.2,1.6,Poly Carbonate,197.6,40952.3,0.0613944,28.9314,0.63596,2.54384,11922,0.00626119,2.95051,0.218282,6.60902
22612,1400,11.1,3S1P,45,18.7,86.0,35.5,113.0,TMOTOR F15,1.5,14.4,13.3,,4500,7.8,,0.197,Carbon Fiber 5030,5.0,3.0,2.18,Carbon Fiber,152.92,29927.5,0.047929,22.586,0.620839,2.48336,8824.67,0.00500508,2.35859,0.21853,8.90364
22618,1400,11.1,3S1P,45,18.7,86.0,35.5,113.0,TMOTOR F15,1.5,14.4,13.3,,4500,7.8,,0.197,T-Motor 5143 Ultra-Light,5.1,4.3,3.7,Poly Carbonate,159.0,21192.5,0.0688384,32.4393,0.610499,2.44199,6305.08,0.00730798,3.44363,0.187344,6.09822
23388,1400,11.1,3S1P,50,19.5,85.0,35.0,131.0,TMOTOR F15,1.5,14.4,13.3,,4500,7.8,,0.197,6030 Carbon Nylon,6.0,3.0,2.22,Carbon Nylon,171.08,24350.9,0.061278,28.8766,0.705827,2.82331,6706.64,0.00563998,2.65772,0.181436,7.9015
23394,1400,11.1,3S1P,50,19.5,85.0,35.0,131.0,TMOTOR F15,1.5,14.4,13.3,,4500,7.8,,0.197,Gemfan 6030 Thick hub,6.0,3.0,5.23,Plastic,183.12,24350.9,0.061278,28.8766,0.705827,2.82331,6706.64,0.00563998,2.65772,0.181436,7.9015
23399,1400,11.1,3S1P,50,19.5,85.0,35.0,131.0,TMOTOR F15,1.5,14.4,13.3,,4500,7.8,,0.197,Gemfan 3052 - Flash,3.0,5.2,1.6,Poly Carbonate,168.6,32871.5,0.0408818,19.2651,0.420695,1.68278,11922,0.00626119,2.95052,0.291043,7.1174
24476,1550,7.4,2S1P,25,17.0,90.0,30.0,102.0,DYS D2812-14,3.175,28.0,12.0,,1600,22.0,,0.27,KingKong 6040,6.0,4.0,3.38,Plastic,203.52,10029.4,0.0250149,4.19129,0.211031,0.844123,5250.18,0.00755382,1.26565,0.489607,18.3699
24844,1550,7.4,2S1P,25,17.0,90.0,30.0,102.0,TMOTOR F1203,2.0,15.5,14.05,,7000,4.45,,0.198,Carbon Fiber 5030,5.0,3.0,2.18,Carbon Fiber,128.52,22669.9,0.0286716,21.0174,0.36831,1.47324,8824.67,0.00500508,3.66891,0.268529,6.33703
24949,1550,7.4,2S1P,25,17.0,90.0,30.0,102.0,TMOTOR F15,1.5,14.4,13.3,,4500,7.8,,0.197,Gemfan 5040 R,5.0,4.0,3.0,ABS,145.2,17563.5,0.0376694,17.7513,0.361191,1.44476,6908.24,0.00670332,3.15887,0.291549,7.36024
24953,1550,7.4,2S1P,25,17.0,90.0,30.0,102.0,TMOTOR F15,1.5,14.4,13.3,,4500,7.8,,0.197,DALPROP 6040,6.0,4.0,4.32,Nylon,150.48,13980.7,0.0462457,21.7928,0.394045,1.57618,5250.18,0.00755382,3.55965,0.252427,6.53154
24956,1550,7.4,2S1P,25,17.0,90.0,30.0,102.0,TMOTOR F15,1.5,14.4,13.3,,4500,7.8,,0.197,KingKong 6040,6.0,4.0,3.38,Plastic,146.72,13980.7,0.0462457,21.7928,0.394045,1.57618,5250.18,0.00755382,3.55965,0.252427,6.53154
24959,1550,7.4,2S1P,25,17.0,90.0,30.0,102.0,TMOTOR F15,1.5,14.4,13.3,,4500,7.8,,0.197,Gemfan 3052 - Flash,3.0,5.2,1.6,Poly Carbonate,139.6,23859.3,0.0225986,10.6494,0.230327,0.921307,11922,0.00626119,2.95052,0.436564,7.87998
25728,1550,11.1,3S1P,25,24.0,91.0,30.0,142.0,TMOTOR F15,1.5,14.4,13.3,,4500,7.8,,0.197,6030 Carbon Nylon,6.0,3.0,2.22,Carbon Nylon,182.08,24350.9,0.061278,28.8766,0.705827,2.82331,6706.64,0.00563998,2.65772,0.181436,8.74809
25733,1550,11.1,3S1P,25,24.0,91.0,30.0,142.0,TMOTOR F15,1.5,14.4,13.3,,4500,7.8,,0.197,DALPROP 6040,6.0,4.0,4.32,Nylon,190.48,18266.6,0.0758423,35.7398,0.651433,2.60573,5250.18,0.00755382,3.55965,0.168285,6.53154
25736,1550,11.1,3S1P,25,24.0,91.0,30.0,142.0,TMOTOR F15,1.5,14.4,13.3,,4500,7.8,,0.197,KingKong 6040,6.0,4.0,3.38,Plastic,186.72,18266.6,0.0758423,35.7398,0.651433,2.60573,5250.18,0.00755382,3.55965,0.168285,6.53154
25739,1550,11.1,3S1P,25,24.0,91.0,30.0,142.0,TMOTOR F15,1.5,14.4,13.3,,4500,7.8,,0.197,Gemfan 3052 - Flash,3.0,5.2,1.6,Poly Carbonate,179.6,32871.5,0.0408818,19.2651,0.420695,1.68278,11922,0.00626119,2.95052,0.291043,7.87998
26508,1550,11.1,3S1P,45,25.0,72.0,36.5,128.0,TMOTOR F15,1.5,14.4,13.3,,4500,7.8,,0.197,6030 Carbon Nylon,6.0,3.0,2.22,Carbon Nylon,168.08,24350.9,0.061278,28.8766,0.705827,2.82331,6706.64,0.00563998,2.65772,0.181436,8.74809
26513,1550,11.1,3S1P,45,25.0,72.0,36.5,128.0,TMOTOR F15,1.5,14.4,13.3,,4500,7.8,,0.197,DALPROP 6040,6.0,4.0,4.32,Nylon,176.48,18266.6,0.0758423,35.7398,0.651433,2.60573,5250.18,0.00755382,3.55965,0.168285,6.53154
26516,1550,11.1,3S1P,45,25.0,72.0,36.5,128.0,TMOTOR F15,1.5,14.4,13.3,,4500,7.8,,0.197,KingKong 6040,6.0,4.0,3.38,Plastic,172.72,18266.6,0.0758423,35.7398,0.651433,2.60573,5250.18,0.00755382,3.55965,0.168285,6.53154
26519,1550,11.1,3S1P,45,25.0,72.0,36.5,128.0,TMOTOR F15,1.5,14.4,13.3,,4500,7.8,,0.197,Gemfan 3052 - Flash,3.0,5.2,1.6,Poly Carbonate,165.6,32871.5,0.0408818,19.2651,0.420695,1.68278,11922,0.00626119,2.95052,0.291043,7.87998
27288,1550,11.1,3S1P,75,27.0,72.0,36.0,136.0,TMOTOR F15,1.5,14.4,13.3,,4500,7.8,,0.197,6030 Carbon Nylon,6.0,3.0,2.22,Carbon Nylon,176.08,24350.9,0.061278,28.8766,0.705827,2.82331,6706.64,0.00563998,2.65772,0.181436,8.74809
27293,1550,11.1,3S1P,75,27.0,72.0,36.0,136.0,TMOTOR F15,1.5,14.4,13.3,,4500,7.8,,0.197,DALPROP 6040,6.0,4.0,4.32,Nylon,184.48,18266.6,0.0758423,35.7398,0.651433,2.60573,5250.18,0.00755382,3.55965,0.168285,6.53154
27296,1550,11.1,3S1P,75,27.0,72.0,36.0,136.0,TMOTOR F15,1.5,14.4,13.3,,4500,7.8,,0.197,KingKong 6040,6.0,4.0,3.38,Plastic,180.72,18266.6,0.0758423,35.7398,0.651433,2.60573,5250.18,0.00755382,3.55965,0.168285,6.53154
27299,1550,11.1,3S1P,75,27.0,72.0,36.0,136.0,TMOTOR F15,1.5,14.4,13.3,,4500,7.8,,0.197,Gemfan 3052 - Flash,3.0,5.2,1.6,Poly Carbonate,173.6,32871.5,0.0408818,19.2651,0.420695,1.68278,11922,0.00626119,2.95052,0.291043,7.87998
28068,1550,11.1,3S1P,75,27.5,72.0,36.0,136.0,TMOTOR F15,1.5,14.4,13.3,,4500,7.8,,0.197,6030 Carbon Nylon,6.0,3.0,2.22,Carbon Nylon,176.08,24350.9,0.061278,28.8766,0.705827,2.82331,6706.64,0.00563998,2.65772,0.181436,8.74809
28073,1550,11.1,3S1P,75,27.5,72.0,36.0,136.0,TMOTOR F15,1.5,14.4,13.3,,4500,7.8,,0.197,DALPROP 6040,6.0,4.0,4.32,Nylon,184.48,18266.6,0.0758423,35.7398,0.651433,2.60573,5250.18,0.00755382,3.55965,0.168285,6.53154
28076,1550,11.1,3S1P,75,27.5,72.0,36.0,136.0,TMOTOR F15,1.5,14.4,13.3,,4500,7.8,,0.197,KingKong 6040,6.0,4.0,3.38,Plastic,180.72,18266.6,0.0758423,35.7398,0.651433,2.60573,5250.18,0.00755382,3.55965,0.168285,6.53154
28079,1550,11.1,3S1P,75,27.5,72.0,36.0,136.0,TMOTOR F15,1.5,14.4,13.3,,4500,7.8,,0.197,Gemfan 3052 - Flash,3.0,5.2,1.6,Poly Carbonate,173.6,32871.5,0.0408818,19.2651,0.420695,1.68278,11922,0.00626119,2.95052,0.291043,7.87998
29524,1550,14.8,4S1P,45,33.0,72.0,36.5,178.0,TMOTOR F1203,2.0,15.5,14.05,,7000,4.45,,0.198,Carbon Fiber 5030,5.0,3.0,2.18,Carbon Fiber,204.52,35792.6,0.0667401,48.9231,0.869159,3.47663,8824.67,0.00500508,3.66892,0.134264,6.33702
31084,1550,14.8,4S1P,75,36.0,72.0,36.0,176.0,TMOTOR F1203,2.0,15.5,14.05,,7000,4.45,,0.198,Carbon Fiber 5030,5.0,3.0,2.18,Carbon Fiber,202.52,35792.6,0.0667401,48.9231,0.869159,3.47663,8824.67,0.00500508,3.66892,0.134264,6.33702
32276,1800,7.4,2S1P,25,17.3,89.79,30.2,100.06,DYS D2812-14,3.175,28.0,12.0,,1600,22.0,,0.27,KingKong 6040,6.0,4.0,3.38,Plastic,201.58,10029.4,0.0250149,4.19129,0.211031,0.844123,5250.18,0.00755382,1.26565,0.489607,21.3328
32640,1800,7.4,2S1P,25,17.3,89.79,30.2,100.06,TMOTOR F1203,2.0,15.5,14.05,,7000,4.45,,0.198,6030 Carbon Nylon,6.0,3.0,2.22,Carbon Nylon,126.74,17611.8,0.0336501,24.6668,0.383848,1.53539,6706.65,0.0056401,4.13441,0.240095,6.53055
32646,1800,7.4,2S1P,25,17.3,89.79,30.2,100.06,TMOTOR F1203,2.0,15.5,14.05,,7000,4.45,,0.198,Gemfan 6030 Thick hub,6.0,3.0,5.23,Plastic,138.78,17611.8,0.0336501,24.6668,0.383848,1.53539,6706.65,0.0056401,4.13441,0.240095,6.53055
32748,1800,7.4,2S1P,25,17.3,89.79,30.2,100.06,TMOTOR F15,1.5,14.4,13.3,,4500,7.8,,0.197,6030 Carbon Nylon,6.0,3.0,2.22,Carbon Nylon,140.14,18264.1,0.0359923,16.961,0.411013,1.64405,6706.65,0.0056401,2.65784,0.272157,10.1586
32750,1800,7.4,2S1P,25,17.3,89.79,30.2,100.06,TMOTOR F15,1.5,14.4,13.3,,4500,7.8,,0.197,6045 plastic,6.0,4.5,6.0,Plastic,155.26,12377.4,0.0500836,23.6013,0.378392,1.51357,4749.42,0.0085136,4.01194,0.24943,6.72991
32752,1800,7.4,2S1P,25,17.3,89.79,30.2,100.06,TMOTOR F15,1.5,14.4,13.3,,4500,7.8,,0.197,Carbon Fiber 5030,5.0,3.0,2.18,Carbon Fiber,139.98,21984.1,0.0270875,12.7647,0.347641,1.39056,8824.67,0.00500508,2.35859,0.327794,11.4475
32754,1800,7.4,2S1P,25,17.3,89.79,30.2,100.06,TMOTOR F15,1.5,14.4,13.3,,4500,7.8,,0.197,Gemfan 6030 Thick hub,6.0,3.0,5.23,Plastic,152.18,18264.1,0.0359923,16.961,0.411013,1.64405,6706.65,0.0056401,2.65784,0.272157,10.1586
32756,1800,7.4,2S1P,25,17.3,89.79,30.2,100.06,TMOTOR F15,1.5,14.4,13.3,,4500,7.8,,0.197,KingKong 6040,6.0,4.0,3.38,Plastic,144.78,13980.7,0.0462457,21.7928,0.394045,1.57618,5250.18,0.00755382,3.55965,0.252427,7.58501
32758,1800,7.4,2S1P,25,17.3,89.79,30.2,100.06,TMOTOR F15,1.5,14.4,13.3,,4500,7.8,,0.197,T-Motor 5143 Ultra-Light,5.1,4.3,3.7,Poly Carbonate,146.06,16067.9,0.0412494,19.4383,0.362798,1.45119,6305.09,0.00730837,3.44399,0.281027,7.83974
33420,1800,11.1,3S1P,25,26.0,93.0,30.0,156.0,TMOTOR F1203,2.0,15.5,14.05,,7000,4.45,,0.198,6030 Carbon Nylon,6.0,3.0,2.22,Carbon Nylon,182.68,22759.5,0.0540758,39.6396,0.621606,2.48643,6706.65,0.00564011,4.13441,0.160064,6.53055
33426,1800,11.1,3S1P,25,26.0,93.0,30.0,156.0,TMOTOR F1203,2.0,15.5,14.05,,7000,4.45,,0.198,Gemfan 6030 Thick hub,6.0,3.0,5.23,Plastic,194.72,22759.5,0.0540758,39.6396,0.621606,2.48643,6706.65,0.00564011,4.13441,0.160064,6.53055
33528,1800,11.1,3S1P,25,26.0,93.0,30.0,156.0,TMOTOR F15,1.5,14.4,13.3,,4500,7.8,,0.197,6030 Carbon Nylon,6.0,3.0,2.22,Carbon Nylon,196.08,24350.9,0.061278,28.8766,0.705827,2.82331,6706.64,0.00563998,2.65772,0.181436,10.1591
33532,1800,11.1,3S1P,25,26.0,93.0,30.0,156.0,TMOTOR F15,1.5,14.4,13.3,,4500,7.8,,0.197,Carbon Fiber 5030,5.0,3.0,2.18,Carbon Fiber,195.92,29927.5,0.047929,22.586,0.620839,2.48336,8824.67,0.00500508,2.35859,0.21853,11.4475
33534,1800,11.1,3S1P,25,26.0,93.0,30.0,156.0,TMOTOR F15,1.5,14.4,13.3,,4500,7.8,,0.197,Gemfan 6030 Thick hub,6.0,3.0,5.23,Plastic,208.12,24350.9,0.061278,28.8766,0.705827,2.82331,6706.64,0.00563998,2.65772,0.181436,10.1591
33536,1800,11.1,3S1P,25,26.0,93.0,30.0,156.0,TMOTOR F15,1.5,14.4,13.3,,4500,7.8,,0.197,KingKong 6040,6.0,4.0,3.38,Plastic,200.72,18266.6,0.0758423,35.7398,0.651433,2.60573,5250.18,0.00755382,3.55965,0.168285,7.58501
33539,1800,11.1,3S1P,25,26.0,93.0,30.0,156.0,TMOTOR F15,1.5,14.4,13.3,,4500,7.8,,0.197,Gemfan 3052 - Flash,3.0,5.2,1.6,Poly Carbonate,193.6,32871.5,0.0408818,19.2651,0.420695,1.68278,11922,0.00626119,2.95052,0.291043,9.15094
34204,1800,11.1,3S1P,25,26.0,93.0,30.0,156.0,TMOTOR F1203,2.0,15.5,14.05,,7000,4.45,,0.198,Carbon Fiber 5030,5.0,3.0,2.18,Carbon Fiber,182.52,29696.8,0.0472477,34.6344,0.611871,2.44749,8824.67,0.00500508,3.66891,0.179019,7.35913
34300,1800,11.1,3S1P,25,26.0,93.0,30.0,156.0,TMOTOR F1103,1.5,14.4,14.0,,8000,5.3,,0.163,Carbon Fiber 5030,5.0,3.0,2.18,Carbon Fiber,185.92,31440,0.0525064,43.9877,0.681138,2.72455,8824.67,0.00500508,4.19305,0.16095,6.43923
34311,1800,11.1,3S1P,25,26.0,93.0,30.0,156.0,TMOTOR F15,1.5,14.4,13.3,,4500,7.8,,0.197,Gemfan Hurricane 51499,5.1,4.99,5.2,Poly Carbonate,208.0,18163.7,0.0760886,35.8559,0.579667,2.31867,5555.01,0.00850074,4.00588,0.182307,6.74009
34313,1800,11.1,3S1P,25,26.0,93.0,30.0,156.0,TMOTOR F15,1.5,14.4,13.3,,4500,7.8,,0.197,DALPROP 6040,6.0,4.0,4.32,Nylon,204.48,18266.6,0.0758423,35.7398,0.651433,2.60573,5250.18,0.00755382,3.55965,0.168285,7.58501
34315,1800,11.1,3S1P,25,26.0,93.0,30.0,156.0,TMOTOR F15,1.5,14.4,13.3,,4500,7.8,,0.197,Gemfan 5050 3-Blades BN,5.0,5.0,5.0,Poly Carbonate,207.2,18639.7,0.0749493,35.319,0.57723,2.30892,5713.35,0.00840824,3.96229,0.184703,6.81424
34318,1800,11.1,3S1P,25,26.0,93.0,30.0,156.0,TMOTOR F15,1.5,14.4,13.3,,4500,7.8,,0.197,T-Motor 5143 Ultra-Light,5.1,4.3,3.7,Poly Carbonate,202.0,21192.5,0.0688384,32.4393,0.610499,2.44199,6305.08,0.00730798,3.44363,0.187344,7.84057
34980,1800,11.1,3S1P,45,20.8,106.0,35.5,158.0,TMOTOR F1203,2.0,15.5,14.05,,7000,4.45,,0.198,6030 Carbon Nylon,6.0,3.0,2.22,Carbon Nylon,184.68,22759.5,0.0540758,39.6396,0.621606,2.48643,6706.65,0.00564011,4.13441,0.160064,6.53055
34986,1800,11.1,3S1P,45,20.8,106.0,35.5,158.0,TMOTOR F1203,2.0,15.5,14.05,,7000,4.45,,0.198,Gemfan 6030 Thick hub,6.0,3.0,5.23,Plastic,196.72,22759.5,0.0540758,39.6396,0.621606,2.48643,6706.65,0.00564011,4.13441,0.160064,6.53055
35088,1800,11.1,3S1P,45,20.8,106.0,35.5,158.0,TMOTOR F15,1.5,14.4,13.3,,4500,7.8,,0.197,6030 Carbon Nylon,6.0,3.0,2.22,Carbon Nylon,198.08,24350.9,0.061278,28.8766,0.705827,2.82331,6706.64,0.00563998,2.65772,0.181436,10.1591
35093,1800,11.1,3S1P,45,20.8,106.0,35.5,158.0,TMOTOR F15,1.5,14.4,13.3,,4500,7.8,,0.197,DALPROP 6040,6.0,4.0,4.32,Nylon,206.48,18266.6,0.0758423,35.7398,0.651433,2.60573,5250.18,0.00755382,3.55965,0.168285,7.58501
35098,1800,11.1,3S1P,45,20.8,106.0,35.5,158.0,TMOTOR F15,1.5,14.4,13.3,,4500,7.8,,0.197,T-Motor 5143 Ultra-Light,5.1,4.3,3.7,Poly Carbonate,204.0,21192.5,0.0688384,32.4393,0.610499,2.44199,6305.08,0.00730798,3.44363,0.187344,7.84057
35760,1800,11.1,3S1P,75,19.3,105.0,35.0,159.0,TMOTOR F1203,2.0,15.5,14.05,,7000,4.45,,0.198,6030 Carbon Nylon,6.0,3.0,2.22,Carbon Nylon,185.68,22759.5,0.0540758,39.6396,0.621606,2.48643,6706.65,0.00564011,4.13441,0.160064,6.53055
35766,1800,11.1,3S1P,75,19.3,105.0,35.0,159.0,TMOTOR F1203,2.0,15.5,14.05,,7000,4.45,,0.198,Gemfan 6030 Thick hub,6.0,3.0,5.23,Plastic,197.72,22759.5,0.0540758,39.6396,0.621606,2.48643,6706.65,0.00564011,4.13441,0.160064,6.53055
35868,1800,11.1,3S1P,75,19.3,105.0,35.0,159.0,TMOTOR F15,1.5,14.4,13.3,,4500,7.8,,0.197,6030 Carbon Nylon,6.0,3.0,2.22,Carbon Nylon,199.08,24350.9,0.061278,28.8766,0.705827,2.82331,6706.64,0.00563998,2.65772,0.181436,10.1591
35873,1800,11.1,3S1P,75,19.3,105.0,35.0,159.0,TMOTOR F15,1.5,14.4,13.3,,4500,7.8,,0.197,DALPROP 6040,6.0,4.0,4.32,Nylon,207.48,18266.6,0.0758423,35.7398,0.651433,2.60573,5250.18,0.00755382,3.55965,0.168285,7.58501
35878,1800,11.1,3S1P,75,19.3,105.0,35.0,159.0,TMOTOR F15,1.5,14.4,13.3,,4500,7.8,,0.197,T-Motor 5143 Ultra-Light,5.1,4.3,3.7,Poly Carbonate,205.0,21192.5,0.0688384,32.4393,0.610499,2.44199,6305.08,0.00730798,3.44363,0.187344,7.84057
36540,1800,11.1,3S1P,75,23.0,105.0,35.0,160.0,TMOTOR F1203,2.0,15.5,14.05,,7000,4.45,,0.198,6030 Carbon Nylon,6.0,3.0,2.22,Carbon Nylon,186.68,22759.5,0.0540758,39.6396,0.621606,2.48643,6706.65,0.00564011,4.13441,0.160064,6.53055
36546,1800,11.1,3S1P,75,23.0,105.0,35.0,160.0,TMOTOR F1203,2.0,15.5,14.05,,7000,4.45,,0.198,Gemfan 6030 Thick hub,6.0,3.0,5.23,Plastic,198.72,22759.5,0.0540758,39.6396,0.621606,2.48643,6706.65,0.00564011,4.13441,0.160064,6.53055
36648,1800,11.1,3S1P,75,23.0,105.0,35.0,160.0,TMOTOR F15,1.5,14.4,13.3,,4500,7.8,,0.197,6030 Carbon Nylon,6.0,3.0,2.22,Carbon Nylon,200.08,24350.9,0.061278,28.8766,0.705827,2.82331,6706.64,0.00563998,2.65772,0.181436,10.1591
36656,1800,11.1,3S1P,75,23.0,105.0,35.0,160.0,TMOTOR F15,1.5,14.4,13.3,,4500,7.8,,0.197,KingKong 6040,6.0,4.0,3.38,Plastic,204.72,18266.6,0.0758423,35.7398,0.651433,2.60573,5250.18,0.00755382,3.55965,0.168285,7.58501
36659,1800,11.1,3S1P,75,23.0,105.0,35.0,160.0,TMOTOR F15,1.5,14.4,13.3,,4500,7.8,,0.197,Gemfan 3052 - Flash,3.0,5.2,1.6,Poly Carbonate,197.6,32871.5,0.0408818,19.2651,0.420695,1.68278,11922,0.00626119,2.95052,0.291043,9.15094
40441,2200,7.4,2S1P,25,18.53,106.0,34.0,135.6,TMOTOR F1203,2.0,15.5,14.05,,7000,4.45,,0.198,Gemfan 5040 R,5.0,4.0,3.0,ABS,165.4,16748.5,0.0344998,25.2897,0.330327,1.32131,6908.24,0.00670342,4.91394,0.264845,6.71559
40446,2200,7.4,2S1P,25,18.53,106.0,34.0,135.6,TMOTOR F1203,2.0,15.5,14.05,,7000,4.45,,0.198,Gemfan 6030 Thick hub,6.0,3.0,5.23,Plastic,174.32,17611.8,0.0336501,24.6668,0.383848,1.53539,6706.65,0.0056401,4.13441,0.240095,7.98179
40451,2200,7.4,2S1P,25,18.53,106.0,34.0,135.6,TMOTOR F1203,2.0,15.5,14.05,,7000,4.45,,0.198,Gemfan 3052 - Flash,3.0,5.2,1.6,Poly Carbonate,159.8,25615.7,0.0257722,18.892,0.263232,1.05293,11922,0.00626116,4.58965,0.352958,7.1901
40540,2200,7.4,2S1P,25,18.53,106.0,34.0,135.6,TMOTOR F1103,1.5,14.4,14.0,,8000,5.3,,0.163,Carbon Fiber 5030,5.0,3.0,2.18,Carbon Fiber,165.52,24106.8,0.0321238,26.912,0.413418,1.65367,8824.67,0.00500508,4.19304,0.241426,7.87018
40547,2200,7.4,2S1P,25,18.53,106.0,34.0,135.6,TMOTOR F1103,1.5,14.4,14.0,,8000,5.3,,0.163,Gemfan 3052 - Flash,3.0,5.2,1.6,Poly Carbonate,163.2,27371.6,0.0291352,24.4083,0.298175,1.1927,11922,0.00626119,5.24536,0.316924,6.29127
40549,2200,7.4,2S1P,25,18.53,106.0,34.0,135.6,TMOTOR F15,1.5,14.4,13.3,,4500,7.8,,0.197,Gemfan 5040 R,5.0,4.0,3.0,ABS,178.8,17563.5,0.0376694,17.7513,0.361191,1.44476,6908.24,0.00670332,3.15887,0.291549,10.4468
40551,2200,7.4,2S1P,25,18.53,106.0,34.0,135.6,TMOTOR F15,1.5,14.4,13.3,,4500,7.8,,0.197,Gemfan Hurricane 51499,5.1,4.99,5.2,Poly Carbonate,187.6,13906.4,0.0464235,21.8766,0.350847,1.40339,5555.01,0.00850074,4.00588,0.27346,8.23789
40553,2200,7.4,2S1P,25,18.53,106.0,34.0,135.6,TMOTOR F15,1.5,14.4,13.3,,4500,7.8,,0.197,DALPROP 6040,6.0,4.0,4.32,Nylon,184.08,13980.7,0.0462457,21.7928,0.394045,1.57618,5250.18,0.00755382,3.55965,0.252427,9.27057
40555,2200,7.4,2S1P,25,18.53,106.0,34.0,135.6,TMOTOR F15,1.5,14.4,13.3,,4500,7.8,,0.197,Gemfan 5050 3-Blades BN,5.0,5.0,5.0,Poly Carbonate,186.8,14249.5,0.0456023,21.4896,0.348392,1.39357,5713.35,0.00840824,3.96229,0.277055,8.32851
40557,2200,7.4,2S1P,25,18.53,106.0,34.0,135.6,TMOTOR F15,1.5,14.4,13.3,,4500,7.8,,0.197,Quanum Carbon Fiber Propeller 6045 Self-Locking,6.0,4.5,6.78,Carbon Fiber,193.92,12377.4,0.0500836,23.6013,0.378392,1.51357,4749.42,0.0085136,4.01194,0.24943,8.22545
40559,2200,7.4,2S1P,25,18.53,106.0,34.0,135.6,TMOTOR F15,1.5,14.4,13.3,,4500,7.8,,0.197,Gemfan 3052 - Flash,3.0,5.2,1.6,Poly Carbonate,173.2,23859.3,0.0225986,10.6494,0.230327,0.921307,11922,0.00626119,2.95052,0.436564,11.1845
41221,2200,7.4,2S1P,25,21.0,84.0,32.0,134.0,TMOTOR F1203,2.0,15.5,14.05,,7000,4.45,,0.198,Gemfan 5040 R,5.0,4.0,3.0,ABS,163.8,16748.5,0.0344998,25.2897,0.330327,1.32131,6908.24,0.00670342,4.91394,0.264845,6.71559
41226,2200,7.4,2S1P,25,21.0,84.0,32.0,134.0,TMOTOR F1203,2.0,15.5,14.05,,7000,4.45,,0.198,Gemfan 6030 Thick hub,6.0,3.0,5.23,Plastic,172.72,17611.8,0.0336501,24.6668,0.383848,1.53539,6706.65,0.0056401,4.13441,0.240095,7.98179
41231,2200,7.4,2S1P,25,21.0,84.0,32.0,134.0,TMOTOR F1203,2.0,15.5,14.05,,7000,4.45,,0.198,Gemfan 3052 - Flash,3.0,5.2,1.6,Poly Carbonate,158.2,25615.7,0.0257722,18.892,0.263232,1.05293,11922,0.00626116,4.58965,0.352958,7.1901
41320,2200,7.4,2S1P,25,21.0,84.0,32.0,134.0,TMOTOR F1103,1.5,14.4,14.0,,8000,5.3,,0.163,Carbon Fiber 5030,5.0,3.0,2.18,Carbon Fiber,163.92,24106.8,0.0321238,26.912,0.413418,1.65367,8824.67,0.00500508,4.19304,0.241426,7.87018
41327,2200,7.4,2S1P,25,21.0,84.0,32.0,134.0,TMOTOR F1103,1.5,14.4,14.0,,8000,5.3,,0.163,Gemfan 3052 - Flash,3.0,5.2,1.6,Poly Carbonate,161.6,27371.6,0.0291352,24.4083,0.298175,1.1927,11922,0.00626119,5.24536,0.316924,6.29127
41329,2200,7.4,2S1P,25,21.0,84.0,32.0,134.0,TMOTOR F15,1.5,14.4,13.3,,4500,7.8,,0.197,Gemfan 5040 R,5.0,4.0,3.0,ABS,177.2,17563.5,0.0376694,17.7513,0.361191,1.44476,6908.24,0.00670332,3.15887,0.291549,10.4468
41331,2200,7.4,2S1P,25,21.0,84.0,32.0,134.0,TMOTOR F15,1.5,14.4,13.3,,4500,7.8,,0.197,Gemfan Hurricane 51499,5.1,4.99,5.2,Poly Carbonate,186.0,13906.4,0.0464235,21.8766,0.350847,1.40339,5555.01,0.00850074,4.00588,0.27346,8.23789
41333,2200,7.4,2S1P,25,21.0,84.0,32.0,134.0,TMOTOR F15,1.5,14.4,13.3,,4500,7.8,,0.197,DALPROP 6040,6.0,4.0,4.32,Nylon,182.48,13980.7,0.0462457,21.7928,0.394045,1.57618,5250.18,0.00755382,3.55965,0.252427,9.27057
41335,2200,7.4,2S1P,25,21.0,84.0,32.0,134.0,TMOTOR F15,1.5,14.4,13.3,,4500,7.8,,0.197,Gemfan 5050 3-Blades BN,5.0,5.0,5.0,Poly Carbonate,185.2,14249.5,0.0456023,21.4896,0.348392,1.39357,5713.35,0.00840824,3.96229,0.277055,8.32851
41337,2200,7.4,2S1P,25,21.0,84.0,32.0,134.0,TMOTOR F15,1.5,14.4,13.3,,4500,7.8,,0.197,Quanum Carbon Fiber Propeller 6045 Self-Locking,6.0,4.5,6.78,Carbon Fiber,192.32,12377.4,0.0500836,23.6013,0.378392,1.51357,4749.42,0.0085136,4.01194,0.24943,8.22545
41339,2200,7.4,2S1P,25,21.0,84.0,32.0,134.0,TMOTOR F15,1.5,14.4,13.3,,4500,7.8,,0.197,Gemfan 3052 - Flash,3.0,5.2,1.6,Poly Carbonate,171.6,23859.3,0.0225986,10.6494,0.230327,0.921307,11922,0.00626119,2.95052,0.436564,11.1845
42001,2200,7.4,2S1P,50,20.0,87.2,34.0,130.0,TMOTOR F1203,2.0,15.5,14.05,,7000,4.45,,0.198,Gemfan 5040 R,5.0,4.0,3.0,ABS,159.8,16748.5,0.0344998,25.2897,0.330327,1.32131,6908.24,0.00670342,4.91394,0.264845,6.71559
42006,2200,7.4,2S1P,50,20.0,87.2,34.0,130.0,TMOTOR F1203,2.0,15.5,14.05,,7000,4.45,,0.198,Gemfan 6030 Thick hub,6.0,3.0,5.23,Plastic,168.72,17611.8,0.0336501,24.6668,0.383848,1.53539,6706.65,0.0056401,4.13441,0.240095,7.98179
42011,2200,7.4,2S1P,50,20.0,87.2,34.0,130.0,TMOTOR F1203,2.0,15.5,14.05,,7000,4.45,,0.198,Gemfan 3052 - Flash,3.0,5.2,1.6,Poly Carbonate,154.2,25615.7,0.0257722,18.892,0.263232,1.05293,11922,0.00626116,4.58965,0.352958,7.1901
42100,2200,7.4,2S1P,50,20.0,87.2,34.0,130.0,TMOTOR F1103,1.5,14.4,14.0,,8000,5.3,,0.163,Carbon Fiber 5030,5.0,3.0,2.18,Carbon Fiber,159.92,24106.8,0.0321238,26.912,0.413418,1.65367,8824.67,0.00500508,4.19304,0.241426,7.87018
42107,2200,7.4,2S1P,50,20.0,87.2,34.0,130.0,TMOTOR F1103,1.5,14.4,14.0,,8000,5.3,,0.163,Gemfan 3052 - Flash,3.0,5.2,1.6,Poly Carbonate,157.6,27371.6,0.0291352,24.4083,0.298175,1.1927,11922,0.00626119,5.24536,0.316924,6.29127
42109,2200,7.4,2S1P,50,20.0,87.2,34.0,130.0,TMOTOR F15,1.5,14.4,13.3,,4500,7.8,,0.197,Gemfan 5040 R,5.0,4.0,3.0,ABS,173.2,17563.5,0.0376694,17.7513,0.361191,1.44476,6908.24,0.00670332,3.15887,0.291549,10.4468
42111,2200,7.4,2S1P,50,20.0,87.2,34.0,130.0,TMOTOR F15,1.5,14.4,13.3,,4500,7.8,,0.197,Gemfan Hurricane 51499,5.1,4.99,5.2,Poly Carbonate,182.0,13906.4,0.0464235,21.8766,0.350847,1.40339,5555.01,0.00850074,4.00588,0.27346,8.23789
42113,2200,7.4,2S1P,50,20.0,87.2,34.0,130.0,TMOTOR F15,1.5,14.4,13.3,,4500,7.8,,0.197,DALPROP 6040,6.0,4.0,4.32,Nylon,178.48,13980.7,0.0462457,21.7928,0.394045,1.57618,5250.18,0.00755382,3.55965,0.252427,9.27057
42115,2200,7.4,2S1P,50,20.0,87.2,34.0,130.0,TMOTOR F15,1.5,14.4,13.3,,4500,7.8,,0.197,Gemfan 5050 3-Blades BN,5.0,5.0,5.0,Poly Carbonate,181.2,14249.5,0.0456023,21.4896,0.348392,1.39357,5713.35,0.00840824,3.96229,0.277055,8.32851
42117,2200,7.4,2S1P,50,20.0,87.2,34.0,130.0,TMOTOR F15,1.5,14.4,13.3,,4500,7.8,,0.197,Quanum Carbon Fiber Propeller 6045 Self-Locking,6.0,4.5,6.78,Carbon Fiber,188.32,12377.4,0.0500836,23.6013,0.378392,1.51357,4749.42,0.0085136,4.01194,0.24943,8.22545
42119,2200,7.4,2S1P,50,20.0,87.2,34.0,130.0,TMOTOR F15,1.5,14.4,13.3,,4500,7.8,,0.197,Gemfan 3052 - Flash,3.0,5.2,1.6,Poly Carbonate,167.6,23859.3,0.0225986,10.6494,0.230327,0.921307,11922,0.00626119,2.95052,0.436564,11.1845
46684,2300,11.1,3S1P,45,23.2,106.0,35.5,179.0,TMOTOR F1203,2.0,15.5,14.05,,7000,4.45,,0.198,Carbon Fiber 5030,5.0,3.0,2.18,Carbon Fiber,205.52,29696.8,0.0472477,34.6344,0.611871,2.44749,8824.67,0.00500508,3.66891,0.179019,9.40333
46787,2300,11.1,3S1P,45,23.2,106.0,35.5,179.0,TMOTOR F1103,1.5,14.4,14.0,,8000,5.3,,0.163,Gemfan 3052 - Flash,3.0,5.2,1.6,Poly Carbonate,206.6,35989,0.0483424,40.4992,0.498822,1.99529,11922,0.00626118,5.24535,0.211283,6.57725
54481,3500,7.4,2S1P,60,18.8,92.8,46.5,149.0,TMOTOR F1203,2.0,15.5,14.05,,7000,4.45,,0.198,Gemfan 5040 R,5.0,4.0,3.0,ABS,178.8,16748.5,0.0344998,25.2897,0.330327,1.32131,6908.24,0.00670342,4.91394,0.264845,10.6839
54483,3500,7.4,2S1P,60,18.8,92.8,46.5,149.0,TMOTOR F1203,2.0,15.5,14.05,,7000,4.45,,0.198,Gemfan Hurricane 51499,5.1,4.99,5.2,Poly Carbonate,187.6,12585.6,0.0385972,28.2932,0.290827,1.16331,5555.01,0.00850074,6.23137,0.273971,8.42512
54485,3500,7.4,2S1P,60,18.8,92.8,46.5,149.0,TMOTOR F1203,2.0,15.5,14.05,,7000,4.45,,0.198,DALPROP 6040,6.0,4.0,4.32,Nylon,184.08,12665.2,0.0385189,28.2358,0.327235,1.30894,5250.18,0.00755382,5.53724,0.249513,9.48126
54487,3500,7.4,2S1P,60,18.8,92.8,46.5,149.0,TMOTOR F1203,2.0,15.5,14.05,,7000,4.45,,0.198,Gemfan 5050 3-Blades BN,5.0,5.0,5.0,Poly Carbonate,186.8,12954.7,0.0382339,28.0269,0.291266,1.16506,5713.35,0.00840824,6.16356,0.275213,8.5178
54489,3500,7.4,2S1P,60,18.8,92.8,46.5,149.0,TMOTOR F1203,2.0,15.5,14.05,,7000,4.45,,0.198,Quanum Carbon Fiber Propeller 6045 Self-Locking,6.0,4.5,6.78,Carbon Fiber,193.92,10986.4,0.0401712,29.447,0.302418,1.20967,4749.42,0.0085136,6.2408,0.258671,8.41239
54491,3500,7.4,2S1P,60,18.8,92.8,46.5,149.0,TMOTOR F1203,2.0,15.5,14.05,,7000,4.45,,0.198,Gemfan 3052 - Flash,3.0,5.2,1.6,Poly Carbonate,173.2,25615.7,0.0257722,18.892,0.263232,1.05293,11922,0.00626116,4.58965,0.352958,11.4388
54577,3500,7.4,2S1P,60,18.8,92.8,46.5,149.0,TMOTOR F1103,1.5,14.4,14.0,,8000,5.3,,0.163,Gemfan 5040 R,5.0,4.0,3.0,ABS,182.2,17654.2,0.0380304,31.8602,0.364708,1.45883,6908.24,0.00670332,5.61575,0.240392,9.3487
54579,3500,7.4,2S1P,60,18.8,92.8,46.5,149.0,TMOTOR F1103,1.5,14.4,14.0,,8000,5.3,,0.163,Gemfan Hurricane 51499,5.1,4.99,5.2,Poly Carbonate,191.0,13193,0.0421141,35.2814,0.317776,1.2711,5555.01,0.00850074,7.12156,0.250702,7.37198
54581,3500,7.4,2S1P,60,18.8,92.8,46.5,149.0,TMOTOR F1103,1.5,14.4,14.0,,8000,5.3,,0.163,DALPROP 6040,6.0,4.0,4.32,Nylon,187.48,13277.8,0.0420365,35.2164,0.357626,1.4305,5250.18,0.00755381,6.32826,0.228078,8.29612
54583,3500,7.4,2S1P,60,18.8,92.8,46.5,149.0,TMOTOR F1103,1.5,14.4,14.0,,8000,5.3,,0.163,Gemfan 5050 3-Blades BN,5.0,5.0,5.0,Poly Carbonate,190.2,13586.4,0.041754,34.9798,0.318537,1.27415,5713.35,0.00840824,7.04408,0.251669,7.45307
54585,3500,7.4,2S1P,60,18.8,92.8,46.5,149.0,TMOTOR F1103,1.5,14.4,14.0,,8000,5.3,,0.163,Quanum Carbon Fiber Propeller 6045 Self-Locking,6.0,4.5,6.78,Carbon Fiber,197.32,11493.7,0.0436696,36.5846,0.329201,1.3168,4749.42,0.0085136,7.13234,0.237331,7.36084
54587,3500,7.4,2S1P,60,18.8,92.8,46.5,149.0,TMOTOR F1103,1.5,14.4,14.0,,8000,5.3,,0.163,Gemfan 3052 - Flash,3.0,5.2,1.6,Poly Carbonate,176.6,27371.6,0.0291352,24.4083,0.298175,1.1927,11922,0.00626119,5.24536,0.316924,10.0088
54589,3500,7.4,2S1P,60,18.8,92.8,46.5,149.0,TMOTOR F15,1.5,14.4,13.3,,4500,7.8,,0.197,Gemfan 5040 R,5.0,4.0,3.0,ABS,192.2,17563.5,0.0376694,17.7513,0.361191,1.44476,6908.24,0.00670332,3.15887,0.291549,16.6199
54591,3500,7.4,2S1P,60,18.8,92.8,46.5,149.0,TMOTOR F15,1.5,14.4,13.3,,4500,7.8,,0.197,Gemfan Hurricane 51499,5.1,4.99,5.2,Poly Carbonate,201.0,13906.4,0.0464235,21.8766,0.350847,1.40339,5555.01,0.00850074,4.00588,0.27346,13.1057
54593,3500,7.4,2S1P,60,18.8,92.8,46.5,149.0,TMOTOR F15,1.5,14.4,13.3,,4500,7.8,,0.197,DALPROP 6040,6.0,4.0,4.32,Nylon,197.48,13980.7,0.0462457,21.7928,0.394045,1.57618,5250.18,0.00755382,3.55965,0.252427,14.7486
54595,3500,7.4,2S1P,60,18.8,92.8,46.5,149.0,TMOTOR F15,1.5,14.4,13.3,,4500,7.8,,0.197,Gemfan 5050 3-Blades BN,5.0,5.0,5.0,Poly Carbonate,200.2,14249.5,0.0456023,21.4896,0.348392,1.39357,5713.35,0.00840824,3.96229,0.277055,13.2499
54597,3500,7.4,2S1P,60,18.8,92.8,46.5,149.0,TMOTOR F15,1.5,14.4,13.3,,4500,7.8,,0.197,Quanum Carbon Fiber Propeller 6045 Self-Locking,6.0,4.5,6.78,Carbon Fiber,207.32,12377.4,0.0500836,23.6013,0.378392,1.51357,4749.42,0.0085136,4.01194,0.24943,13.0859
54599,3500,7.4,2S1P,60,18.8,92.8,46.5,149.0,TMOTOR F15,1.5,14.4,13.3,,4500,7.8,,0.197,Gemfan 3052 - Flash,3.0,5.2,1.6,Poly Carbonate,186.6,23859.3,0.0225986,10.6494,0.230327,0.921307,11922,0.00626119,2.95052,0.436564,17.7935
91926,7000,3.7,1S2P,50,19.0,93.0,47.0,147.0,TMOTOR F1203,2.0,15.5,14.05,,7000,4.45,,0.198,Gemfan 6030 Thick hub,6.0,3.0,5.23,Plastic,185.72,11171.6,0.0144966,10.6266,0.16312,0.652479,6706.65,0.0056401,4.1344,0.48019,25.3967
92017,7000,3.7,1S2P,50,19.0,93.0,47.0,147.0,TMOTOR F1103,1.5,14.4,14.0,,8000,5.3,,0.163,Gemfan 5040 R,5.0,4.0,3.0,ABS,180.2,11325.3,0.0167284,14.0143,0.158301,0.633205,6908.22,0.00670081,5.61159,0.480599,18.7113
92020,7000,3.7,1S2P,50,19.0,93.0,47.0,147.0,TMOTOR F1103,1.5,14.4,14.0,,8000,5.3,,0.163,Carbon Fiber 5030,5.0,3.0,2.18,Carbon Fiber,176.92,15003.8,0.0133611,11.1934,0.169522,0.67809,8824.67,0.00500506,4.19301,0.48285,25.0417
92022,7000,3.7,1S2P,50,19.0,93.0,47.0,147.0,TMOTOR F1103,1.5,14.4,14.0,,8000,5.3,,0.163,Gemfan 6030 Thick hub,6.0,3.0,5.23,Plastic,189.12,11873.5,0.0162265,13.5939,0.18292,0.73168,6706.65,0.00564006,4.72496,0.43473,22.2224
92025,7000,3.7,1S2P,50,19.0,93.0,47.0,147.0,TMOTOR F1103,1.5,14.4,14.0,,8000,5.3,,0.163,Quanum Carbon Fiber Propeller 6045 Self-Locking,6.0,4.5,6.78,Carbon Fiber,195.32,7569.7,0.0201662,16.8944,0.150129,0.600515,4749.42,0.0085136,7.13234,0.474662,14.7217
92028,7000,3.7,1S2P,50,19.0,93.0,47.0,147.0,TMOTOR F15,1.5,14.4,13.3,,4500,7.8,,0.197,6030 Carbon Nylon,6.0,3.0,2.22,Carbon Nylon,187.08,10881.6,0.0138081,6.50692,0.155251,0.621002,6706.65,0.0056401,2.65784,0.544313,39.5058
92034,7000,3.7,1S2P,50,19.0,93.0,47.0,147.0,TMOTOR F15,1.5,14.4,13.3,,4500,7.8,,0.197,Gemfan 6030 Thick hub,6.0,3.0,5.23,Plastic,199.12,10881.6,0.0138081,6.50692,0.155251,0.621002,6706.65,0.0056401,2.65784,0.544313,39.5058
92036,7000,3.7,1S2P,50,19.0,93.0,47.0,147.0,TMOTOR F15,1.5,14.4,13.3,,4500,7.8,,0.197,KingKong 6040,6.0,4.0,3.38,Plastic,191.72,8669.39,0.0191038,9.00238,0.160461,0.641845,5250.18,0.00755382,3.55965,0.504854,29.4973