File: Aldo/Propulsion/Datasets/Results/HoveringTimeFilteredCombinations.csv
,Unnamed: 0,Unnamed: 0.1,Unnamed: 0.1.1,Unnamed: 0.1.1.1,Unnamed: 0.1.1.1.1,Capacity (mah),Nominal voltage (V),Cells configuration,Discharge (C),Battery height (mm),Bettry length (mm),Battery width (mm),Battery weight (g),Battery price (€),Motor name,Shaft diameter (mm),Motor diameter (mm),Motor height (mm),Magnetic poles,KV (rpm/V),Motor weight (g),No load current @10V (A),Resistance (Ohm),Motor price (€),Propeller Name,Propeller diameter (in),Propeller pitch (in),Propeller weight (g),Propeller material,Propeller price (€),Total weight (g),Total price (€),Peak rotational speed (rpm),Peak torque (Nm),Peak current (A),Peak thrust (kgf),Total thrust (kgf),Hovering rotational speed (rpm),Hovering torque (Nm),Hovering current (A),Hovering PWM,Hovering time (m)
100134,117,117,117,117,117,7000,3.7,1S2P,50,19.0,93.0,47.0,147.0,5.0,TMOTOR F15,1.5,14.4,13.3,,4500,7.8,,0.197,14.0,Gemfan 6030 Thick hub,6.0,3.0,5.23,Plastic,1,199.12,65.0,10881.6,0.0138081,6.50692,0.155251,0.621002,6706.65,0.0056401,2.65784,0.544313,39.5058
100020,117,117,117,117,117,7000,3.7,1S2P,50,19.0,93.0,47.0,147.0,5.0,TMOTOR F1203,2.0,15.5,14.05,,7000,4.45,,0.198,15.0,6030 Carbon Nylon,6.0,3.0,2.22,Carbon Nylon,1,173.68,69.0,11171.6,0.0144966,10.6266,0.16312,0.652479,6706.65,0.0056401,4.1344,0.48019,25.3967
100337,117,117,117,117,117,7000,3.7,1S2P,50,19.0,93.0,47.0,147.0,5.0,EMAX ECO Micro Series 1106,2.0,14.2,19.9,9N12P,6000,6.7,1.2,0.19,13.0,DALPROP 6040,6.0,4.0,4.32,Nylon,1,191.08,61.0,8630.25,0.0189447,11.9033,0.159102,0.636409,5250.18,0.00755377,4.74614,0.480215,22.1232
50032,53,53,53,53,53,2200,7.4,2S1P,50,20.0,87.2,34.0,130.0,10.0,iFlight XING X1404 ,2.0,18.3,12.5,,3000,8.5,,0.28,17.0,Carbon Fiber 5030,5.0,3.0,2.18,Carbon Fiber,2,172.72,86.0,17508.5,0.0177779,5.58509,0.226608,0.906434,8824.67,0.00500503,1.57236,0.457002,20.9875
64896,69,69,69,69,69,3500,7.4,2S1P,60,18.8,92.8,46.5,149.0,10.0,EMAX ECO Micro Series 1106,2.0,14.2,19.9,9N12P,4500,6.7,0.6,0.3,13.0,6030 Carbon Nylon,6.0,3.0,2.22,Carbon Nylon,1,184.68,66.0,15796,0.0275146,12.9659,0.312836,1.25135,6706.65,0.0056401,2.65784,0.309151,19.7529
49050,52,52,52,52,52,2200,7.4,2S1P,25,21.0,84.0,32.0,134.0,10.0,iFlight XING X1404 ,2.0,18.3,12.5,,3000,8.5,,0.28,17.0,Gemfan 6030 Thick hub,6.0,3.0,5.23,Plastic,1,188.92,82.0,15330.2,0.0260325,8.17834,0.295719,1.18288,6706.65,0.0056401,1.77189,0.369146,18.6242
64805,69,69,69,69,69,3500,7.4,2S1P,60,18.8,92.8,46.5,149.0,10.0,iFlight XING X1404 ,2.0,18.3,12.5,,3800,8.5,,0.28,17.0,DALPROP 6040,6.0,4.0,4.32,Nylon,1,200.28,82.0,12411.1,0.0371016,14.764,0.315003,1.26001,5250.18,0.00755358,3.00574,0.300437,17.4666
49132,52,52,52,52,52,2200,7.4,2S1P,25,21.0,84.0,32.0,134.0,10.0,EMAX ECO Micro Series 1404,1.5,18.8,19.75,9N12P,3700,8.6,0.5,0.265,13.0,Carbon Fiber 5030,5.0,3.0,2.18,Carbon Fiber,2,177.12,70.0,19295.6,0.0212798,8.24515,0.272038,1.08815,8824.67,0.00500505,1.93926,0.39175,17.0168
100124,117,117,117,117,117,7000,3.7,1S2P,50,19.0,93.0,47.0,147.0,5.0,TMOTOR F1103,1.5,14.4,14.0,,8000,5.3,,0.163,12.0,KingKong 6040,6.0,4.0,3.38,Plastic,1,181.72,57.0,8680.53,0.0191494,16.0425,0.160849,0.643397,5250.18,0.00755382,6.32827,0.456157,16.5922
12072,12,12,12,12,12,1000,11.1,3S1P,25,19.0,72.0,36.0,96.0,18.0,DYS D2812-14,3.175,28.0,12.0,,1600,22.0,,0.27,,6030 Carbon Nylon,6.0,3.0,2.22,Carbon Nylon,1,192.88,,15773.6,0.0274427,4.59806,0.312005,1.24802,6706.65,0.0056401,0.945009,0.400613,15.8729
49102,52,52,52,52,52,2200,7.4,2S1P,25,21.0,84.0,32.0,134.0,10.0,EMAX ECO Micro Series 1407,2.0,18.8,31.2,9N12P,2800,13.7,0.7,0.18,13.0,T-Motor 5143 Ultra-Light,5.1,4.3,3.7,Poly Carbonate,1,203.6,66.0,15211.5,0.0372746,10.9295,0.3273,1.3092,6305.09,0.00730837,2.14293,0.356425,15.3995
64822,69,69,69,69,69,3500,7.4,2S1P,60,18.8,92.8,46.5,149.0,10.0,iFlight XING X1404 ,2.0,18.3,12.5,,4600,8.5,,0.28,17.0,T-Motor 5143 Ultra-Light,5.1,4.3,3.7,Poly Carbonate,1,197.8,82.0,14056.5,0.0322083,15.5151,0.282145,1.12858,6305.09,0.00730837,3.52052,0.318435,14.9126
31336,33,33,33,33,33,1550,11.1,3S1P,45,25.0,72.0,36.5,128.0,18.0,iFlight XING X1404 ,2.0,18.3,12.5,,3000,8.5,,0.28,17.0,Carbon Fiber 5030,5.0,3.0,2.18,Carbon Fiber,2,170.72,94.0,24539.3,0.033198,10.4295,0.427471,1.70988,8824.67,0.00500508,1.57239,0.304669,14.7864
49062,52,52,52,52,52,2200,7.4,2S1P,25,21.0,84.0,32.0,134.0,10.0,iFlight XING X1404 ,2.0,18.3,12.5,,3800,8.5,,0.28,17.0,Gemfan 6030 Thick hub,6.0,3.0,5.23,Plastic,1,188.92,82.0,16079.9,0.0284365,11.3159,0.323491,1.29397,6706.65,0.00564011,2.2444,0.323424,14.7033
10110,10,10,10,10,10,900,11.1,3S1P,45,19.5,52.0,33.5,80.0,18.0,DYS D2812-14,3.175,28.0,12.0,,1600,22.0,,0.27,,Gemfan 6030 Thick hub,6.0,3.0,5.23,Plastic,1,188.92,,15773.6,0.0274427,4.59806,0.312005,1.24802,6706.65,0.0056401,0.945009,0.400613,14.2856
49948,53,53,53,53,53,2200,7.4,2S1P,50,20.0,87.2,34.0,130.0,10.0,TMOTOR F15,1.5,14.4,13.3,,4500,7.8,,0.197,14.0,Carbon Fiber 5030,5.0,3.0,2.18,Carbon Fiber,2,169.92,74.0,21984.1,0.0270875,12.7647,0.347641,1.39056,8824.67,0.00500508,2.35859,0.327794,13.9914
48068,51,51,51,51,51,2200,7.4,2S1P,25,18.53,106.0,34.0,135.6,10.0,iFlight XING X1404 ,2.0,18.3,12.5,,3000,8.5,,0.28,17.0,KingKong 6040,6.0,4.0,3.38,Plastic,1,183.12,82.0,12410.3,0.0370971,11.6544,0.314965,1.25986,5250.18,0.0075538,2.37309,0.326287,13.9059
49116,52,52,52,52,52,2200,7.4,2S1P,25,21.0,84.0,32.0,134.0,10.0,EMAX ECO Micro Series 1407,2.0,18.8,31.2,9N12P,4100,13.7,1.1,0.102,13.0,6030 Carbon Nylon,6.0,3.0,2.22,Carbon Nylon,1,197.68,66.0,21557.6,0.0489119,21.0004,0.561333,2.24533,6706.65,0.0056401,2.42158,0.254428,13.6274
40204,43,43,43,43,43,1800,11.1,3S1P,25,26.0,93.0,30.0,156.0,18.0,iFlight XING X1404 ,2.0,18.3,12.5,,3800,8.5,,0.28,17.0,Carbon Fiber 5030,5.0,3.0,2.18,Carbon Fiber,2,198.72,94.0,26253.5,0.0376154,14.9685,0.485333,1.94133,8824.67,0.00500508,1.9917,0.259455,13.5563
19576,20,20,20,20,20,1300,11.1,3S1P,25,24.0,70.0,35.0,115.0,18.0,EMAX ECO Micro Series 1407,2.0,18.8,31.2,9N12P,2800,13.7,0.7,0.18,13.0,Carbon Fiber 5030,5.0,3.0,2.18,Carbon Fiber,2,178.52,78.0,25726,0.0362292,10.6229,0.467162,1.86865,8824.67,0.00500508,1.46757,0.307732,13.2873
30348,32,32,32,32,32,1550,11.1,3S1P,25,24.0,91.0,30.0,142.0,18.0,iFlight XING X1404 ,2.0,18.3,12.5,,3000,8.5,,0.28,17.0,6030 Carbon Nylon,6.0,3.0,2.22,Carbon Nylon,1,184.88,90.0,21001.6,0.0466036,14.6409,0.534422,2.13769,6706.65,0.0056401,1.77189,0.246097,13.1216
64819,69,69,69,69,69,3500,7.4,2S1P,60,18.8,92.8,46.5,149.0,10.0,iFlight XING X1404 ,2.0,18.3,12.5,,4600,8.5,,0.28,17.0,Gemfan 5050 3-Blades BN,5.0,5.0,5.0,Poly Carbonate,1,203.0,82.0,12344.3,0.034968,16.8445,0.266001,1.064,5713.35,0.00840824,4.05034,0.321098,12.9619
50096,53,53,53,53,53,2200,7.4,2S1P,50,20.0,87.2,34.0,130.0,10.0,EMAX ECO Micro Series 1407,2.0,18.8,31.2,9N12P,3300,13.7,0.9,0.148,13.0,KingKong 6040,6.0,4.0,3.38,Plastic,1,198.32,66.0,15251.6,0.054322,18.7724,0.464071,1.85628,5250.18,0.00755382,2.61041,0.267203,12.6417
13061,14,14,14,14,14,1050,11.1,3S1P,45,25.0,75.0,20.0,85.0,18.0,DYS D2812-14,3.175,28.0,12.0,,1600,22.0,,0.27,,DALPROP 6040,6.0,4.0,4.32,Nylon,1,190.28,,14279.2,0.048089,8.05739,0.410011,1.64004,5250.18,0.00755382,1.26565,0.326405,12.4442
49152,52,52,52,52,52,2200,7.4,2S1P,25,21.0,84.0,32.0,134.0,10.0,EMAX ECO Micro Series 1106,2.0,14.2,19.9,9N12P,4500,6.7,0.6,0.3,13.0,6030 Carbon Nylon,6.0,3.0,2.22,Carbon Nylon,1,169.68,66.0,15796,0.0275146,12.9659,0.312836,1.25135,6706.65,0.0056401,2.65784,0.309151,12.4161
49047,52,52,52,52,52,2200,7.4,2S1P,25,21.0,84.0,32.0,134.0,10.0,iFlight XING X1404 ,2.0,18.3,12.5,,3000,8.5,,0.28,17.0,Gemfan Hurricane 51499,5.1,4.99,5.2,Poly Carbonate,1,188.8,82.0,12355.8,0.0373036,11.7193,0.280925,1.1237,5555.01,0.00850074,2.67059,0.351275,12.3568
48090,51,51,51,51,51,2200,7.4,2S1P,25,18.53,106.0,34.0,135.6,10.0,iFlight XING X1404 ,2.0,18.3,12.5,,4600,8.5,,0.28,17.0,Gemfan 6030 Thick hub,6.0,3.0,5.23,Plastic,1,190.52,82.0,16184.3,0.028779,13.8631,0.32745,1.3098,6706.65,0.00564008,2.71688,0.299823,12.1463
29452,31,31,31,31,31,1550,7.4,2S1P,25,17.0,90.0,30.0,102.0,10.0,EMAX ECO Micro Series 1404,1.5,18.8,19.75,9N12P,3700,8.6,0.5,0.265,13.0,Carbon Fiber 5030,5.0,3.0,2.18,Carbon Fiber,2,145.12,70.0,19295.6,0.0212798,8.24515,0.272038,1.08815,8824.67,0.00500505,1.93926,0.39175,11.9891
28380,29,29,29,29,29,1400,11.1,3S1P,50,19.5,85.0,35.0,131.0,18.0,iFlight XING X1404 ,2.0,18.3,12.5,,3000,8.5,,0.28,17.0,6030 Carbon Nylon,6.0,3.0,2.22,Carbon Nylon,1,173.88,90.0,21001.6,0.0466036,14.6409,0.534422,2.13769,6706.65,0.0056401,1.77189,0.246097,11.8517
31343,33,33,33,33,33,1550,11.1,3S1P,45,25.0,72.0,36.5,128.0,18.0,iFlight XING X1404 ,2.0,18.3,12.5,,3000,8.5,,0.28,17.0,Gemfan 3052 - Flash,3.0,5.2,1.6,Poly Carbonate,1,168.4,90.0,26206.1,0.0268817,8.44515,0.274753,1.09901,11922,0.00626119,1.96701,0.407635,11.82
33316,35,35,35,35,35,1550,11.1,3S1P,75,27.5,72.0,36.0,136.0,18.0,iFlight XING X1404 ,2.0,18.3,12.5,,3800,8.5,,0.28,17.0,Carbon Fiber 5030,5.0,3.0,2.18,Carbon Fiber,2,178.72,94.0,26253.5,0.0376154,14.9685,0.485333,1.94133,8824.67,0.00500508,1.9917,0.259455,11.6735
42268,45,45,45,45,45,1800,11.1,3S1P,75,19.3,105.0,35.0,159.0,18.0,EMAX ECO Micro Series 1106,2.0,14.2,19.9,9N12P,4500,6.7,0.6,0.3,13.0,Carbon Fiber 5030,5.0,3.0,2.18,Carbon Fiber,2,194.52,78.0,26166.6,0.0373852,17.6174,0.482315,1.92926,8824.66,0.00500472,2.35826,0.240407,11.4491
38228,41,41,41,41,41,1800,7.4,2S1P,25,17.3,89.79,30.2,100.06,10.0,iFlight XING X1404 ,2.0,18.3,12.5,,3000,8.5,,0.28,17.0,KingKong 6040,6.0,4.0,3.38,Plastic,1,147.58,82.0,12410.3,0.0370971,11.6544,0.314965,1.25986,5250.18,0.0075538,2.37309,0.326287,11.3776
49066,52,52,52,52,52,2200,7.4,2S1P,25,21.0,84.0,32.0,134.0,10.0,iFlight XING X1404 ,2.0,18.3,12.5,,3800,8.5,,0.28,17.0,T-Motor 5143 Ultra-Light,5.1,4.3,3.7,Poly Carbonate,1,182.8,82.0,14208.7,0.0328561,13.0746,0.287912,1.15165,6305.09,0.00730837,2.90826,0.334263,11.347
39232,42,42,42,42,42,1800,11.1,3S1P,25,26.0,93.0,30.0,156.0,18.0,iFlight XING X1404 ,2.0,18.3,12.5,,4600,8.5,,0.28,17.0,Carbon Fiber 5030,5.0,3.0,2.18,Carbon Fiber,2,198.72,94.0,26805.6,0.039092,18.831,0.504699,2.0188,8824.67,0.00500507,2.411,0.233647,11.1987
42251,45,45,45,45,45,1800,11.1,3S1P,75,19.3,105.0,35.0,159.0,18.0,EMAX ECO Micro Series 1404,1.5,18.8,19.75,9N12P,3700,8.6,0.5,0.265,13.0,Gemfan 3052 - Flash,3.0,5.2,1.6,Poly Carbonate,1,199.8,74.0,28861.2,0.0321362,12.4516,0.32941,1.31764,11922,0.00626119,2.42598,0.348201,11.1295
18540,19,19,19,19,19,1300,11.1,3S1P,25,24.0,70.0,35.0,115.0,18.0,iFlight XING X1404 ,2.0,18.3,12.5,,3000,8.5,,0.28,17.0,6030 Carbon Nylon,6.0,3.0,2.22,Carbon Nylon,1,157.88,90.0,21001.6,0.0466036,14.6409,0.534422,2.13769,6706.65,0.0056401,1.77189,0.246097,11.0052
7512,7,7,7,7,7,800,11.1,3S1P,40,23.0,52.0,30.0,72.0,18.0,TMOTOR P2505,4.0,30.4,28.8,,1850,31.25,,0.069,25.0,6030 Carbon Nylon,6.0,3.0,2.22,Carbon Nylon,1,205.88,122.0,19527.7,0.0407338,7.89142,0.466093,1.86437,6706.65,0.0056401,1.09267,0.333388,10.9823
33358,35,35,35,35,35,1550,11.1,3S1P,75,27.5,72.0,36.0,136.0,18.0,EMAX ECO Micro Series 1407,2.0,18.8,31.2,9N12P,2800,13.7,0.7,0.18,13.0,T-Motor 5143 Ultra-Light,5.1,4.3,3.7,Poly Carbonate,1,205.6,74.0,21041.1,0.0679312,19.9185,0.602323,2.40929,6305.09,0.00730837,2.14293,0.237616,10.8496
27462,28,28,28,28,28,1400,11.1,3S1P,45,18.7,86.0,35.5,113.0,18.0,EMAX ECO Micro Series 1407,2.0,18.8,31.2,9N12P,3300,13.7,0.9,0.148,13.0,Gemfan 6030 Thick hub,6.0,3.0,5.23,Plastic,1,188.72,74.0,25426.5,0.0663795,22.9391,0.765579,3.06232,6706.65,0.0056401,1.94908,0.209079,10.7743
10109,10,10,10,10,10,900,11.1,3S1P,45,19.5,52.0,33.5,80.0,18.0,DYS D2812-14,3.175,28.0,12.0,,1600,22.0,,0.27,,DALPROP 6040,6.0,4.0,4.32,Nylon,1,185.28,,14279.2,0.048089,8.05739,0.410011,1.64004,5250.18,0.00755382,1.26565,0.326405,10.6664
31385,33,33,33,33,33,1550,11.1,3S1P,45,25.0,72.0,36.5,128.0,18.0,EMAX ECO Micro Series 1407,2.0,18.8,31.2,9N12P,2800,13.7,0.7,0.18,13.0,DALPROP 6040,6.0,4.0,4.32,Nylon,1,200.08,74.0,19011.7,0.081664,23.9451,0.702279,2.80911,5250.18,0.00755382,2.21489,0.204842,10.4971
6588,6,6,6,6,6,800,7.4,2S1P,40,15.0,57.0,30.0,50.0,10.0,TMOTOR V2207 V2.0,4.0,27.5,31.35,,1950,35.2,,0.05,14.0,6030 Carbon Nylon,6.0,3.0,2.22,Carbon Nylon,1,199.68,70.0,13992.3,0.0219859,4.48961,0.249069,0.996275,6706.65,0.0056401,1.15173,0.472553,10.4191
38285,41,41,41,41,41,1800,7.4,2S1P,25,17.3,89.79,30.2,100.06,10.0,EMAX ECO Micro Series 1407,2.0,18.8,31.2,9N12P,3300,13.7,0.9,0.148,13.0,DALPROP 6040,6.0,4.0,4.32,Nylon,1,172.14,66.0,15251.6,0.054322,18.7724,0.464071,1.85628,5250.18,0.00755382,2.61041,0.267203,10.3432
49121,52,52,52,52,52,2200,7.4,2S1P,25,21.0,84.0,32.0,134.0,10.0,EMAX ECO Micro Series 1407,2.0,18.8,31.2,9N12P,4100,13.7,1.1,0.102,13.0,DALPROP 6040,6.0,4.0,4.32,Nylon,1,206.08,66.0,17611.7,0.0708883,30.436,0.608215,2.43286,5250.18,0.00755382,3.24324,0.217749,10.175
40296,43,43,43,43,43,1800,11.1,3S1P,25,26.0,93.0,30.0,156.0,18.0,EMAX ECO Micro Series 1106,2.0,14.2,19.9,9N12P,4500,6.7,0.6,0.3,13.0,6030 Carbon Nylon,6.0,3.0,2.22,Carbon Nylon,1,191.68,74.0,20807.4,0.0458093,21.5871,0.525168,2.10067,6706.65,0.0056401,2.65784,0.206101,10.1586
50119,53,53,53,53,53,2200,7.4,2S1P,50,20.0,87.2,34.0,130.0,10.0,EMAX ECO Micro Series 1404,1.5,18.8,19.75,9N12P,3700,8.6,0.5,0.265,13.0,Gemfan 5050 3-Blades BN,5.0,5.0,5.0,Poly Carbonate,1,184.4,66.0,12922.1,0.0380562,14.7454,0.289891,1.15956,5713.35,0.00840824,3.25788,0.325336,10.1293
38222,41,41,41,41,41,1800,7.4,2S1P,25,17.3,89.79,30.2,100.06,10.0,iFlight XING X1404 ,2.0,18.3,12.5,,3000,8.5,,0.28,17.0,6045 plastic,6.0,4.5,6.0,Plastic,1,158.06,82.0,11205.2,0.0416636,13.089,0.313839,1.25536,4749.42,0.0085136,2.67463,0.31514,10.0949
23548,24,24,24,24,24,1300,14.8,4s1p,45,29.8,72.0,36.5,154.0,27.0,EMAX ECO Micro Series 1404,1.5,18.8,19.75,9N12P,3700,8.6,0.5,0.265,13.0,Carbon Fiber 5030,5.0,3.0,2.18,Carbon Fiber,2,197.12,87.0,32974.3,0.0573447,22.219,0.744967,2.97987,8824.67,0.00500508,1.93928,0.195875,10.0553
20574,21,21,21,21,21,1300,11.1,3S1P,45,22.6,72.0,36.5,119.0,18.0,EMAX ECO Micro Series 1407,2.0,18.8,31.2,9N12P,3300,13.7,0.9,0.148,13.0,Gemfan 6030 Thick hub,6.0,3.0,5.23,Plastic,1,194.72,74.0,25426.5,0.0663795,22.9391,0.765579,3.06232,6706.65,0.0056401,1.94908,0.209079,10.0047
49130,52,52,52,52,52,2200,7.4,2S1P,25,21.0,84.0,32.0,134.0,10.0,EMAX ECO Micro Series 1404,1.5,18.8,19.75,9N12P,3700,8.6,0.5,0.265,13.0,6045 plastic,6.0,4.5,6.0,Plastic,1,192.4,66.0,11300.9,0.0423238,16.3989,0.318893,1.27557,4749.42,0.0085136,3.29871,0.291592,10.0039
17605,18,18,18,18,18,1300,7.4,2S1P,25,17.0,70.0,35.0,88.0,10.0,EMAX ECO Micro Series 1407,2.0,18.8,31.2,9N12P,2800,13.7,0.7,0.18,13.0,Gemfan 5040 R,5.0,4.0,3.0,ABS,1,154.8,66.0,16022.8,0.0317852,9.3199,0.303931,1.21573,6908.24,0.00670332,1.96552,0.381219,9.92106
31444,33,33,33,33,33,1550,11.1,3S1P,45,25.0,72.0,36.5,128.0,18.0,EMAX ECO Micro Series 1106,2.0,14.2,19.9,9N12P,4500,6.7,0.6,0.3,13.0,Carbon Fiber 5030,5.0,3.0,2.18,Carbon Fiber,2,163.52,78.0,26166.6,0.0373852,17.6174,0.482315,1.92926,8824.66,0.00500472,2.35826,0.240407,9.85898
64910,69,69,69,69,69,3500,7.4,2S1P,60,18.8,92.8,46.5,149.0,10.0,EMAX ECO Micro Series 1106,2.0,14.2,19.9,9N12P,6000,6.7,1.2,0.19,13.0,6045 plastic,6.0,4.5,6.0,Plastic,1,199.8,66.0,11761,0.0455671,28.6307,0.343742,1.37497,4749.42,0.0085136,5.34925,0.244315,9.81445
33305,35,35,35,35,35,1550,11.1,3S1P,75,27.5,72.0,36.0,136.0,18.0,iFlight XING X1404 ,2.0,18.3,12.5,,3000,8.5,,0.28,17.0,DALPROP 6040,6.0,4.0,4.32,Nylon,1,187.28,90.0,16576.4,0.0633725,19.909,0.542742,2.17097,5250.18,0.00755382,2.3731,0.217525,9.79731
23476,24,24,24,24,24,1300,14.8,4s1p,45,29.8,72.0,36.5,154.0,27.0,iFlight XING X1404 ,2.0,18.3,12.5,,3800,8.5,,0.28,17.0,Carbon Fiber 5030,5.0,3.0,2.18,Carbon Fiber,2,196.72,103.0,32543.6,0.0559666,22.2711,0.726777,2.90711,8824.67,0.00500508,1.9917,0.194592,9.79065
32344,34,34,34,34,34,1550,11.1,3S1P,75,27.0,72.0,36.0,136.0,18.0,iFlight XING X1404 ,2.0,18.3,12.5,,4600,8.5,,0.28,17.0,Carbon Fiber 5030,5.0,3.0,2.18,Carbon Fiber,2,178.72,94.0,26805.6,0.039092,18.831,0.504699,2.0188,8824.67,0.00500507,2.411,0.233647,9.64331
30443,32,32,32,32,32,1550,11.1,3S1P,25,24.0,91.0,30.0,142.0,18.0,EMAX ECO Micro Series 1404,1.5,18.8,19.75,9N12P,3700,8.6,0.5,0.265,13.0,Gemfan 3052 - Flash,3.0,5.2,1.6,Poly Carbonate,1,182.8,74.0,28861.2,0.0321362,12.4516,0.32941,1.31764,11922,0.00626119,2.42598,0.348201,9.58376
41266,44,44,44,44,44,1800,11.1,3S1P,45,20.8,106.0,35.5,158.0,18.0,EMAX ECO Micro Series 1404,1.5,18.8,19.75,9N12P,3700,8.6,0.5,0.265,13.0,T-Motor 5143 Ultra-Light,5.1,4.3,3.7,Poly Carbonate,1,207.2,74.0,19227.1,0.0574953,22.2773,0.508415,2.03366,6305.09,0.00730837,2.83173,0.221125,9.53482
27452,28,28,28,28,28,1400,11.1,3S1P,45,18.7,86.0,35.5,113.0,18.0,EMAX ECO Micro Series 1407,2.0,18.8,31.2,9N12P,2800,13.7,0.7,0.18,13.0,KingKong 6040,6.0,4.0,3.38,Plastic,1,181.32,74.0,19011.7,0.081664,23.9451,0.702279,2.80911,5250.18,0.00755382,2.21489,0.204842,9.48126
50062,53,53,53,53,53,2200,7.4,2S1P,50,20.0,87.2,34.0,130.0,10.0,iFlight XING X1404 ,2.0,18.3,12.5,,4600,8.5,,0.28,17.0,T-Motor 5143 Ultra-Light,5.1,4.3,3.7,Poly Carbonate,1,178.8,82.0,14056.5,0.0322083,15.5151,0.282145,1.12858,6305.09,0.00730837,3.52052,0.318435,9.37361
49170,52,52,52,52,52,2200,7.4,2S1P,25,21.0,84.0,32.0,134.0,10.0,EMAX ECO Micro Series 1106,2.0,14.2,19.9,9N12P,6000,6.7,1.2,0.19,13.0,Gemfan 6030 Thick hub,6.0,3.0,5.23,Plastic,1,181.72,66.0,18362.3,0.0363511,22.8401,0.415177,1.66071,6706.65,0.0056401,3.54378,0.24204,9.31209
38242,41,41,41,41,41,1800,7.4,2S1P,25,17.3,89.79,30.2,100.06,10.0,iFlight XING X1404 ,2.0,18.3,12.5,,3800,8.5,,0.28,17.0,T-Motor 5143 Ultra-Light,5.1,4.3,3.7,Poly Carbonate,1,148.86,82.0,14208.7,0.0328561,13.0746,0.287912,1.15165,6305.09,0.00730837,2.90826,0.334263,9.28391
48968,52,52,52,52,52,2200,7.4,2S1P,25,21.0,84.0,32.0,134.0,10.0,TMOTOR F15,1.5,14.4,13.3,,4500,7.8,,0.197,14.0,KingKong 6040,6.0,4.0,3.38,Plastic,1,178.72,70.0,13980.7,0.0462457,21.7928,0.394045,1.57618,5250.18,0.00755382,3.55965,0.252427,9.27057
43232,46,46,46,46,46,1800,11.1,3S1P,75,23.0,105.0,35.0,160.0,18.0,EMAX ECO Micro Series 1404,1.5,18.8,19.75,9N12P,3700,8.6,0.5,0.265,13.0,KingKong 6040,6.0,4.0,3.38,Plastic,1,207.92,74.0,16689.5,0.0641748,24.8654,0.549726,2.1989,5250.18,0.00755382,2.92682,0.19771,9.22501
6880,6,6,6,6,6,800,7.4,2S1P,40,15.0,57.0,30.0,50.0,10.0,EMAX Freestyle FS2208,4.0,27.45,33.6,12N14P,2500,34.7,2.3,0.036,9.0,Carbon Fiber 5030,5.0,3.0,2.18,Carbon Fiber,2,197.52,54.0,18056.5,0.018821,4.92733,0.240126,0.960506,8824.67,0.00500508,1.31033,0.483384,9.15803
28390,29,29,29,29,29,1400,11.1,3S1P,50,19.5,85.0,35.0,131.0,18.0,iFlight XING X1404 ,2.0,18.3,12.5,,3000,8.5,,0.28,17.0,T-Motor 5143 Ultra-Light,5.1,4.3,3.7,Poly Carbonate,1,179.8,90.0,18777.4,0.0550321,17.2889,0.486288,1.94515,6305.09,0.00730837,2.29599,0.247259,9.14637
48089,51,51,51,51,51,2200,7.4,2S1P,25,18.53,106.0,34.0,135.6,10.0,iFlight XING X1404 ,2.0,18.3,12.5,,4600,8.5,,0.28,17.0,DALPROP 6040,6.0,4.0,4.32,Nylon,1,186.88,82.0,12094.6,0.0353704,17.0383,0.300073,1.20029,5250.18,0.00755381,3.63875,0.291918,9.06904
38240,41,41,41,41,41,1800,7.4,2S1P,25,17.3,89.79,30.2,100.06,10.0,iFlight XING X1404 ,2.0,18.3,12.5,,3800,8.5,,0.28,17.0,KingKong 6040,6.0,4.0,3.38,Plastic,1,147.58,82.0,12411.1,0.0371016,14.764,0.315003,1.26001,5250.18,0.00755358,3.00574,0.300437,8.98281
31397,33,33,33,33,33,1550,11.1,3S1P,45,25.0,72.0,36.5,128.0,18.0,EMAX ECO Micro Series 1407,2.0,18.8,31.2,9N12P,3300,13.7,0.9,0.148,13.0,DALPROP 6040,6.0,4.0,4.32,Nylon,1,200.08,74.0,20616.9,0.0948761,32.7868,0.817885,3.27154,5250.18,0.00755382,2.61041,0.178136,8.90664
16572,17,17,17,17,17,1050,14.8,4S1P,75,26.0,71.0,36.0,125.0,27.0,iFlight XING X1404 ,2.0,18.3,12.5,,3000,8.5,,0.28,17.0,6030 Carbon Nylon,6.0,3.0,2.22,Carbon Nylon,1,167.88,99.0,26063,0.0694862,21.8297,0.802005,3.20802,6706.65,0.0056401,1.77189,0.184573,8.88881
20564,21,21,21,21,21,1300,11.1,3S1P,45,22.6,72.0,36.5,119.0,18.0,EMAX ECO Micro Series 1407,2.0,18.8,31.2,9N12P,2800,13.7,0.7,0.18,13.0,KingKong 6040,6.0,4.0,3.38,Plastic,1,187.32,74.0,19011.7,0.081664,23.9451,0.702279,2.80911,5250.18,0.00755382,2.21489,0.204842,8.80403
29371,31,31,31,31,31,1550,7.4,2S1P,25,17.0,90.0,30.0,102.0,10.0,iFlight XING X1404 ,2.0,18.3,12.5,,3000,8.5,,0.28,17.0,Gemfan 5050 3-Blades BN,5.0,5.0,5.0,Poly Carbonate,1,156.0,82.0,12606.4,0.036354,11.4209,0.276718,1.10687,5713.35,0.00840824,2.64153,0.357308,8.80173
29280,31,31,31,31,31,1550,7.4,2S1P,25,17.0,90.0,30.0,102.0,10.0,TMOTOR F15,1.5,14.4,13.3,,4500,7.8,,0.197,14.0,6030 Carbon Nylon,6.0,3.0,2.22,Carbon Nylon,1,142.08,70.0,18264.1,0.0359923,16.961,0.411013,1.64405,6706.65,0.0056401,2.65784,0.272157,8.74772
33313,35,35,35,35,35,1550,11.1,3S1P,75,27.5,72.0,36.0,136.0,18.0,iFlight XING X1404 ,2.0,18.3,12.5,,3800,8.5,,0.28,17.0,Gemfan 5040 R,5.0,4.0,3.0,ABS,1,182.0,90.0,20653.9,0.0508408,20.2313,0.489859,1.95944,6908.24,0.00670332,2.66749,0.231068,8.71607
32318,34,34,34,34,34,1550,11.1,3S1P,75,27.0,72.0,36.0,136.0,18.0,iFlight XING X1404 ,2.0,18.3,12.5,,3000,8.5,,0.28,17.0,6045 plastic,6.0,4.5,6.0,Plastic,1,194.0,90.0,14831.3,0.0699855,21.9866,0.531632,2.12653,4749.42,0.0085136,2.67463,0.210093,8.6928
22488,23,23,23,23,23,1300,11.1,3s1p,75,24.5,72.0,36.0,125.0,18.0,iFlight XING X1404 ,2.0,18.3,12.5,,3800,8.5,,0.28,17.0,6030 Carbon Nylon,6.0,3.0,2.22,Carbon Nylon,1,167.88,90.0,21526.3,0.0487803,19.4114,0.559798,2.23919,6706.65,0.0056401,2.2444,0.215616,8.68831
9736,9,9,9,9,9,850,14.8,4S1P,45,29.0,60.0,31.0,99.0,27.0,EMAX ECO Micro Series 1407,2.0,18.8,31.2,9N12P,2800,13.7,0.7,0.18,13.0,Carbon Fiber 5030,5.0,3.0,2.18,Carbon Fiber,2,162.52,87.0,32968.4,0.0573257,16.8088,0.744716,2.97886,8824.67,0.00500508,1.46757,0.230799,8.68786
41272,44,44,44,44,44,1800,11.1,3S1P,45,20.8,106.0,35.5,158.0,18.0,EMAX ECO Micro Series 1404,1.5,18.8,19.75,9N12P,6000,8.6,1.0,0.12,13.0,Carbon Fiber 5030,5.0,3.0,2.18,Carbon Fiber,2,201.12,78.0,36032.3,0.0675694,42.4551,0.880134,3.52054,8824.67,0.00500507,3.14478,0.1665,8.58566
31356,33,33,33,33,33,1550,11.1,3S1P,45,25.0,72.0,36.5,128.0,18.0,iFlight XING X1404 ,2.0,18.3,12.5,,4600,8.5,,0.28,17.0,6030 Carbon Nylon,6.0,3.0,2.22,Carbon Nylon,1,170.88,90.0,21322.5,0.0479294,23.0881,0.549877,2.19951,6706.65,0.00564008,2.71687,0.199882,8.55763
38137,41,41,41,41,41,1800,7.4,2S1P,25,17.3,89.79,30.2,100.06,10.0,TMOTOR F15,1.5,14.4,13.3,,4500,7.8,,0.197,14.0,Gemfan 5040 R,5.0,4.0,3.0,ABS,1,143.26,70.0,17563.5,0.0376694,17.7513,0.361191,1.44476,6908.24,0.00670332,3.15887,0.291549,8.54737
12642,12,12,12,12,12,1000,11.1,3S1P,25,19.0,72.0,36.0,96.0,18.0,iFlight XING X1404 ,2.0,18.3,12.5,,3000,8.5,,0.28,17.0,Gemfan 6030 Thick hub,6.0,3.0,5.23,Plastic,1,150.92,90.0,21001.6,0.0466036,14.6409,0.534422,2.13769,6706.65,0.0056401,1.77189,0.246097,8.46553
27447,28,28,28,28,28,1400,11.1,3S1P,45,18.7,86.0,35.5,113.0,18.0,EMAX ECO Micro Series 1407,2.0,18.8,31.2,9N12P,2800,13.7,0.7,0.18,13.0,Gemfan Hurricane 51499,5.1,4.99,5.2,Poly Carbonate,1,188.6,74.0,18935.6,0.0821784,24.096,0.626843,2.50737,5555.01,0.00850074,2.49255,0.219152,8.42512
50159,53,53,53,53,53,2200,7.4,2S1P,50,20.0,87.2,34.0,130.0,10.0,EMAX ECO Micro Series 1106,2.0,14.2,19.9,9N12P,6000,6.7,1.2,0.19,13.0,Gemfan 3052 - Flash,3.0,5.2,1.6,Poly Carbonate,1,163.2,66.0,25754.5,0.026031,16.3557,0.265919,1.06367,11922,0.00626119,3.93402,0.369521,8.38837
55740,59,59,59,59,59,2300,11.1,3S1P,45,23.2,106.0,35.5,179.0,18.0,TMOTOR F1203,2.0,15.5,14.05,,7000,4.45,,0.198,15.0,6030 Carbon Nylon,6.0,3.0,2.22,Carbon Nylon,1,205.68,82.0,22759.5,0.0540758,39.6396,0.621606,2.48643,6706.65,0.00564011,4.13441,0.160064,8.34459
6672,6,6,6,6,6,800,7.4,2S1P,40,15.0,57.0,30.0,50.0,10.0,iFlight XING-E PRO 2207,5.0,28.5,19.7,,2450,33.8,,0.0815,15.0,6030 Carbon Nylon,6.0,3.0,2.22,Carbon Nylon,1,194.08,74.0,16587.1,0.030118,7.72718,0.342939,1.37176,6706.65,0.0056401,1.44704,0.385857,8.29277
25540,26,26,26,26,26,1300,14.8,4S1P,75,32.0,72.0,36.0,160.0,27.0,EMAX ECO Micro Series 1106,2.0,14.2,19.9,9N12P,4500,6.7,0.6,0.3,13.0,Carbon Fiber 5030,5.0,3.0,2.18,Carbon Fiber,2,195.52,87.0,32029.3,0.0543416,25.6079,0.705338,2.82135,8824.67,0.00500505,2.35856,0.180311,8.26774
48171,51,51,51,51,51,2200,7.4,2S1P,25,18.53,106.0,34.0,135.6,10.0,EMAX ECO Micro Series 1106,2.0,14.2,19.9,9N12P,4500,6.7,0.6,0.3,13.0,Gemfan Hurricane 51499,5.1,4.99,5.2,Poly Carbonate,1,183.2,66.0,11733.2,0.0339009,15.9754,0.254904,1.01961,5555.01,0.00850074,4.00588,0.329218,8.23789
48962,52,52,52,52,52,2200,7.4,2S1P,25,21.0,84.0,32.0,134.0,10.0,TMOTOR F15,1.5,14.4,13.3,,4500,7.8,,0.197,14.0,6045 plastic,6.0,4.5,6.0,Plastic,1,189.2,70.0,12377.4,0.0500836,23.6013,0.378392,1.51357,4749.42,0.0085136,4.01194,0.24943,8.22545
18545,19,19,19,19,19,1300,11.1,3S1P,25,24.0,70.0,35.0,115.0,18.0,iFlight XING X1404 ,2.0,18.3,12.5,,3000,8.5,,0.28,17.0,DALPROP 6040,6.0,4.0,4.32,Nylon,1,166.28,90.0,16576.4,0.0633725,19.909,0.542742,2.17097,5250.18,0.00755382,2.3731,0.217525,8.2171
31426,33,33,33,33,33,1550,11.1,3S1P,45,25.0,72.0,36.5,128.0,18.0,EMAX ECO Micro Series 1404,1.5,18.8,19.75,9N12P,3700,8.6,0.5,0.265,13.0,T-Motor 5143 Ultra-Light,5.1,4.3,3.7,Poly Carbonate,1,177.2,74.0,19227.1,0.0574953,22.2773,0.508415,2.03366,6305.09,0.00730837,2.83173,0.221125,8.21054
14692,15,15,15,15,15,1050,11.1,3S1P,75,19.0,71.0,36.0,98.0,18.0,EMAX ECO Micro Series 1404,1.5,18.8,19.75,9N12P,3700,8.6,0.5,0.265,13.0,Carbon Fiber 5030,5.0,3.0,2.18,Carbon Fiber,2,141.12,78.0,26515.1,0.0383117,14.8444,0.494464,1.97785,8824.67,0.00500508,1.93928,0.261167,8.12156
25456,26,26,26,26,26,1300,14.8,4S1P,75,32.0,72.0,36.0,160.0,27.0,iFlight XING X1404 ,2.0,18.3,12.5,,4600,8.5,,0.28,17.0,Carbon Fiber 5030,5.0,3.0,2.18,Carbon Fiber,2,202.72,103.0,32816.1,0.0568367,27.3788,0.73826,2.95304,8824.67,0.00500508,2.411,0.175236,8.08792
17628,18,18,18,18,18,1300,7.4,2S1P,25,17.0,70.0,35.0,88.0,10.0,EMAX ECO Micro Series 1407,2.0,18.8,31.2,9N12P,4100,13.7,1.1,0.102,13.0,6030 Carbon Nylon,6.0,3.0,2.22,Carbon Nylon,1,151.68,66.0,21557.6,0.0489119,21.0004,0.561333,2.24533,6706.65,0.0056401,2.42158,0.254428,8.05258
48086,51,51,51,51,51,2200,7.4,2S1P,25,18.53,106.0,34.0,135.6,10.0,iFlight XING X1404 ,2.0,18.3,12.5,,4600,8.5,,0.28,17.0,6045 plastic,6.0,4.5,6.0,Plastic,1,193.6,82.0,10622.4,0.0377433,18.1814,0.283853,1.13541,4749.42,0.00851361,4.1011,0.294701,8.04663
24539,25,25,25,25,25,1300,14.8,4S1P,75,29.4,72.0,36.0,155.0,27.0,EMAX ECO Micro Series 1404,1.5,18.8,19.75,9N12P,3700,8.6,0.5,0.265,13.0,Gemfan 3052 - Flash,3.0,5.2,1.6,Poly Carbonate,1,195.8,83.0,36197.3,0.0488612,18.9319,0.504263,2.01705,11922,0.00626119,2.42598,0.261151,8.038
14615,15,15,15,15,15,1050,11.1,3S1P,75,19.0,71.0,36.0,98.0,18.0,iFlight XING X1404 ,2.0,18.3,12.5,,3000,8.5,,0.28,17.0,Gemfan 3052 - Flash,3.0,5.2,1.6,Poly Carbonate,1,138.4,90.0,26206.1,0.0268817,8.44515,0.274753,1.09901,11922,0.00626119,1.96701,0.407635,8.00707
49836,53,53,53,53,53,2200,7.4,2S1P,50,20.0,87.2,34.0,130.0,10.0,TMOTOR F1203,2.0,15.5,14.05,,7000,4.45,,0.198,15.0,6030 Carbon Nylon,6.0,3.0,2.22,Carbon Nylon,1,156.68,74.0,17611.8,0.0336501,24.6668,0.383848,1.53539,6706.65,0.0056401,4.13441,0.240095,7.98179
30437,32,32,32,32,32,1550,11.1,3S1P,25,24.0,91.0,30.0,142.0,18.0,EMAX ECO Micro Series 1404,1.5,18.8,19.75,9N12P,3700,8.6,0.5,0.265,13.0,DALPROP 6040,6.0,4.0,4.32,Nylon,1,193.68,74.0,16689.5,0.0641748,24.8654,0.549726,2.1989,5250.18,0.00755382,2.92682,0.19771,7.94376
13636,14,14,14,14,14,1050,11.1,3S1P,45,25.0,75.0,20.0,85.0,18.0,iFlight XING X1404 ,2.0,18.3,12.5,,3800,8.5,,0.28,17.0,Carbon Fiber 5030,5.0,3.0,2.18,Carbon Fiber,2,127.72,94.0,26253.5,0.0376154,14.9685,0.485333,1.94133,8824.67,0.00500508,1.9917,0.259455,7.90784
28488,29,29,29,29,29,1400,11.1,3S1P,50,19.5,85.0,35.0,131.0,18.0,EMAX ECO Micro Series 1106,2.0,14.2,19.9,9N12P,4500,6.7,0.6,0.3,13.0,6030 Carbon Nylon,6.0,3.0,2.22,Carbon Nylon,1,166.68,74.0,20807.4,0.0458093,21.5871,0.525168,2.10067,6706.65,0.0056401,2.65784,0.206101,7.90116
29291,31,31,31,31,31,1550,7.4,2S1P,25,17.0,90.0,30.0,102.0,10.0,TMOTOR F15,1.5,14.4,13.3,,4500,7.8,,0.197,14.0,Gemfan 3052 - Flash,3.0,5.2,1.6,Poly Carbonate,1,139.6,70.0,23859.3,0.0225986,10.6494,0.230327,0.921307,11922,0.00626119,2.95052,0.436564,7.87998
27405,28,28,28,28,28,1400,11.1,3S1P,45,18.7,86.0,35.5,113.0,18.0,iFlight XING X1404 ,2.0,18.3,12.5,,3000,8.5,,0.28,17.0,Quanum Carbon Fiber Propeller 6045 Self-Locking,6.0,4.5,6.78,Carbon Fiber,2,174.12,94.0,14831.3,0.0699855,21.9866,0.531632,2.12653,4749.42,0.0085136,2.67463,0.210093,7.85156
38338,41,41,41,41,41,1800,7.4,2S1P,25,17.3,89.79,30.2,100.06,10.0,EMAX ECO Micro Series 1106,2.0,14.2,19.9,9N12P,4500,6.7,0.6,0.3,13.0,T-Motor 5143 Ultra-Light,5.1,4.3,3.7,Poly Carbonate,1,141.66,66.0,13716.8,0.0307829,14.5061,0.269461,1.07784,6305.09,0.00730837,3.44399,0.328963,7.83974
22499,23,23,23,23,23,1300,11.1,3s1p,75,24.5,72.0,36.0,125.0,18.0,iFlight XING X1404 ,2.0,18.3,12.5,,3800,8.5,,0.28,17.0,Gemfan 3052 - Flash,3.0,5.2,1.6,Poly Carbonate,1,165.4,90.0,28707.3,0.03182,12.6623,0.326116,1.30447,11922,0.00626119,2.49155,0.345495,7.82646
19581,20,20,20,20,20,1300,11.1,3S1P,25,24.0,70.0,35.0,115.0,18.0,EMAX ECO Micro Series 1407,2.0,18.8,31.2,9N12P,2800,13.7,0.7,0.18,13.0,Quanum Carbon Fiber Propeller 6045 Self-Locking,6.0,4.5,6.78,Carbon Fiber,2,196.92,78.0,17311.8,0.0931667,27.3179,0.711014,2.84406,4749.42,0.0085136,2.49632,0.193294,7.8115
6596,6,6,6,6,6,800,7.4,2S1P,40,15.0,57.0,30.0,50.0,10.0,TMOTOR V2207 V2.0,4.0,27.5,31.35,,1950,35.2,,0.05,14.0,KingKong 6040,6.0,4.0,3.38,Plastic,1,204.32,70.0,13559.9,0.0437035,8.92441,0.372042,1.48817,5250.18,0.00755382,1.54252,0.374261,7.7795
28410,29,29,29,29,29,1400,11.1,3S1P,50,19.5,85.0,35.0,131.0,18.0,iFlight XING X1404 ,2.0,18.3,12.5,,4600,8.5,,0.28,17.0,Gemfan 6030 Thick hub,6.0,3.0,5.23,Plastic,1,185.92,90.0,21322.5,0.0479294,23.0881,0.549877,2.19951,6706.65,0.00564008,2.71687,0.199882,7.72947
6736,6,6,6,6,6,800,7.4,2S1P,40,15.0,57.0,30.0,50.0,10.0,iFlight XING X1404 ,2.0,18.3,12.5,,3000,8.5,,0.28,17.0,Carbon Fiber 5030,5.0,3.0,2.18,Carbon Fiber,2,92.72,86.0,17508.5,0.0177779,5.58509,0.226608,0.906434,8824.67,0.00500503,1.57236,0.457002,7.63182
41292,44,44,44,44,44,1800,11.1,3S1P,45,20.8,106.0,35.5,158.0,18.0,EMAX ECO Micro Series 1106,2.0,14.2,19.9,9N12P,6000,6.7,1.2,0.19,13.0,6030 Carbon Nylon,6.0,3.0,2.22,Carbon Nylon,1,193.68,74.0,23969.8,0.0595158,37.3949,0.685204,2.74082,6706.65,0.0056401,3.54378,0.16136,7.61898
40284,43,43,43,43,43,1800,11.1,3S1P,25,26.0,93.0,30.0,156.0,18.0,EMAX ECO Micro Series 1404,1.5,18.8,19.75,9N12P,6000,8.6,1.0,0.12,13.0,6030 Carbon Nylon,6.0,3.0,2.22,Carbon Nylon,1,199.28,74.0,28796.2,0.0835647,52.5052,0.967388,3.86955,6706.65,0.00564011,3.54379,0.139012,7.61897
43253,46,46,46,46,46,1800,11.1,3S1P,75,23.0,105.0,35.0,160.0,18.0,EMAX ECO Micro Series 1106,2.0,14.2,19.9,9N12P,4500,6.7,0.6,0.3,13.0,DALPROP 6040,6.0,4.0,4.32,Nylon,1,204.08,74.0,15278.6,0.0545,25.6825,0.465616,1.86246,5250.18,0.00755382,3.55965,0.201316,7.58501
38141,41,41,41,41,41,1800,7.4,2S1P,25,17.3,89.79,30.2,100.06,10.0,TMOTOR F15,1.5,14.4,13.3,,4500,7.8,,0.197,14.0,DALPROP 6040,6.0,4.0,4.32,Nylon,1,148.54,70.0,13980.7,0.0462457,21.7928,0.394045,1.57618,5250.18,0.00755382,3.55965,0.252427,7.58501
6663,6,6,6,6,6,800,7.4,2S1P,40,15.0,57.0,30.0,50.0,10.0,iFlight XING-E PRO 2207,5.0,28.5,19.7,,1800,33.8,,0.0815,15.0,Gemfan Hurricane 51499,5.1,4.99,5.2,Poly Carbonate,1,206.0,74.0,12297.5,0.0369784,6.97027,0.278436,1.11374,5555.01,0.00850074,1.60235,0.43469,7.48899
22541,23,23,23,23,23,1300,11.1,3s1p,75,24.5,72.0,36.0,125.0,18.0,EMAX ECO Micro Series 1407,2.0,18.8,31.2,9N12P,3300,13.7,0.9,0.148,13.0,DALPROP 6040,6.0,4.0,4.32,Nylon,1,197.08,74.0,20616.9,0.0948761,32.7868,0.817885,3.27154,5250.18,0.00755382,2.61041,0.178136,7.47009
38249,41,41,41,41,41,1800,7.4,2S1P,25,17.3,89.79,30.2,100.06,10.0,iFlight XING X1404 ,2.0,18.3,12.5,,4600,8.5,,0.28,17.0,DALPROP 6040,6.0,4.0,4.32,Nylon,1,151.34,82.0,12094.6,0.0353704,17.0383,0.300073,1.20029,5250.18,0.00755381,3.63875,0.291918,7.42012
38301,41,41,41,41,41,1800,7.4,2S1P,25,17.3,89.79,30.2,100.06,10.0,EMAX ECO Micro Series 1407,2.0,18.8,31.2,9N12P,4100,13.7,1.1,0.102,13.0,Quanum Carbon Fiber Propeller 6045 Self-Locking,6.0,4.5,6.78,Carbon Fiber,2,181.98,70.0,15955.3,0.0801131,34.3967,0.6099,2.4396,4749.42,0.0085136,3.65532,0.206924,7.38649
64701,69,69,69,69,69,3500,7.4,2S1P,60,18.8,92.8,46.5,149.0,10.0,TMOTOR F1103,1.5,14.4,14.0,,8000,5.3,,0.163,12.0,Quanum Carbon Fiber Propeller 6045 Self-Locking,6.0,4.5,6.78,Carbon Fiber,2,197.32,66.0,11493.7,0.0436696,36.5846,0.329201,1.3168,4749.42,0.0085136,7.13234,0.237331,7.36084
40984,44,44,44,44,44,1800,11.1,3S1P,45,20.8,106.0,35.5,158.0,18.0,TMOTOR F1203,2.0,15.5,14.05,,7000,4.45,,0.198,15.0,Carbon Fiber 5030,5.0,3.0,2.18,Carbon Fiber,2,184.52,86.0,29696.8,0.0472477,34.6344,0.611871,2.44749,8824.67,0.00500508,3.66891,0.179019,7.35913
18456,19,19,19,19,19,1300,11.1,3S1P,25,24.0,70.0,35.0,115.0,18.0,TMOTOR F15,1.5,14.4,13.3,,4500,7.8,,0.197,14.0,6030 Carbon Nylon,6.0,3.0,2.22,Carbon Nylon,1,155.08,78.0,24350.9,0.061278,28.8766,0.705827,2.82331,6706.64,0.00563998,2.65772,0.181436,7.33711
24552,25,25,25,25,25,1300,14.8,4S1P,75,29.4,72.0,36.0,155.0,27.0,EMAX ECO Micro Series 1106,2.0,14.2,19.9,9N12P,4500,6.7,0.6,0.3,13.0,6030 Carbon Nylon,6.0,3.0,2.22,Carbon Nylon,1,190.68,83.0,25166.6,0.0651293,30.6914,0.750929,3.00371,6706.65,0.00564009,2.65783,0.154575,7.33682
19632,20,20,20,20,20,1300,11.1,3S1P,25,24.0,70.0,35.0,115.0,18.0,EMAX ECO Micro Series 1106,2.0,14.2,19.9,9N12P,4500,6.7,0.6,0.3,13.0,6030 Carbon Nylon,6.0,3.0,2.22,Carbon Nylon,1,150.68,74.0,20807.4,0.0458093,21.5871,0.525168,2.10067,6706.65,0.0056401,2.65784,0.206101,7.33679
22489,23,23,23,23,23,1300,11.1,3s1p,75,24.5,72.0,36.0,125.0,18.0,iFlight XING X1404 ,2.0,18.3,12.5,,3800,8.5,,0.28,17.0,Gemfan 5040 R,5.0,4.0,3.0,ABS,1,171.0,90.0,20653.9,0.0508408,20.2313,0.489859,1.95944,6908.24,0.00670332,2.66749,0.231068,7.31025
20517,21,21,21,21,21,1300,11.1,3S1P,45,22.6,72.0,36.5,119.0,18.0,iFlight XING X1404 ,2.0,18.3,12.5,,3000,8.5,,0.28,17.0,Quanum Carbon Fiber Propeller 6045 Self-Locking,6.0,4.5,6.78,Carbon Fiber,2,180.12,94.0,14831.3,0.0699855,21.9866,0.531632,2.12653,4749.42,0.0085136,2.67463,0.210093,7.29074
6531,6,6,6,6,6,800,7.4,2S1P,40,15.0,57.0,30.0,50.0,10.0,TMOTOR P2505,4.0,30.4,28.8,,1850,31.25,,0.069,25.0,Gemfan Hurricane 51499,5.1,4.99,5.2,Poly Carbonate,1,195.8,114.0,12717,0.039346,7.62255,0.296561,1.18624,5555.01,0.00850074,1.64686,0.421127,7.28659
16656,17,17,17,17,17,1050,14.8,4S1P,75,26.0,71.0,36.0,125.0,27.0,EMAX ECO Micro Series 1404,1.5,18.8,19.75,9N12P,3700,8.6,0.5,0.265,13.0,6030 Carbon Nylon,6.0,3.0,2.22,Carbon Nylon,1,168.28,83.0,26856.2,0.0734489,28.4587,0.848505,3.39402,6706.65,0.0056401,2.18533,0.161603,7.20714
49847,53,53,53,53,53,2200,7.4,2S1P,50,20.0,87.2,34.0,130.0,10.0,TMOTOR F1203,2.0,15.5,14.05,,7000,4.45,,0.198,15.0,Gemfan 3052 - Flash,3.0,5.2,1.6,Poly Carbonate,1,154.2,74.0,25615.7,0.0257722,18.892,0.263232,1.05293,11922,0.00626116,4.58965,0.352958,7.1901
20538,21,21,21,21,21,1300,11.1,3S1P,45,22.6,72.0,36.5,119.0,18.0,iFlight XING X1404 ,2.0,18.3,12.5,,4600,8.5,,0.28,17.0,Gemfan 6030 Thick hub,6.0,3.0,5.23,Plastic,1,173.92,90.0,21322.5,0.0479294,23.0881,0.549877,2.19951,6706.65,0.00564008,2.71687,0.199882,7.17737
27485,28,28,28,28,28,1400,11.1,3S1P,45,18.7,86.0,35.5,113.0,18.0,EMAX ECO Micro Series 1404,1.5,18.8,19.75,9N12P,3700,8.6,0.5,0.265,13.0,DALPROP 6040,6.0,4.0,4.32,Nylon,1,164.68,74.0,16689.5,0.0641748,24.8654,0.549726,2.1989,5250.18,0.00755382,2.92682,0.19771,7.17501
3216,3,3,3,3,3,450,11.1,3S1P,75,22.5,68.0,17.5,57.0,18.0,DYS D2812-14,3.175,28.0,12.0,,1600,22.0,,0.27,,6030 Carbon Nylon,6.0,3.0,2.22,Carbon Nylon,1,153.88,,15773.6,0.0274427,4.59806,0.312005,1.24802,6706.65,0.0056401,0.945009,0.400613,7.14279
28499,29,29,29,29,29,1400,11.1,3S1P,50,19.5,85.0,35.0,131.0,18.0,EMAX ECO Micro Series 1106,2.0,14.2,19.9,9N12P,4500,6.7,0.6,0.3,13.0,Gemfan 3052 - Flash,3.0,5.2,1.6,Poly Carbonate,1,164.2,74.0,29139.5,0.032712,15.4152,0.335408,1.34163,11922,0.00626118,2.95051,0.318421,7.11742
29451,31,31,31,31,31,1550,7.4,2S1P,25,17.0,90.0,30.0,102.0,10.0,EMAX ECO Micro Series 1404,1.5,18.8,19.75,9N12P,3700,8.6,0.5,0.265,13.0,Gemfan Hurricane 51499,5.1,4.99,5.2,Poly Carbonate,1,157.2,66.0,12627.1,0.0388329,15.0463,0.292632,1.17053,5555.01,0.00850074,3.29372,0.320837,7.05888
33393,35,35,35,35,35,1550,11.1,3S1P,75,27.5,72.0,36.0,136.0,18.0,EMAX ECO Micro Series 1404,1.5,18.8,19.75,9N12P,3700,8.6,0.5,0.265,13.0,Quanum Carbon Fiber Propeller 6045 Self-Locking,6.0,4.5,6.78,Carbon Fiber,2,197.52,78.0,14750.2,0.0692795,26.8432,0.526182,2.10473,4749.42,0.0085136,3.29871,0.194395,7.04822
12694,12,12,12,12,12,1000,11.1,3S1P,25,19.0,72.0,36.0,96.0,18.0,EMAX ECO Micro Series 1407,2.0,18.8,31.2,9N12P,2800,13.7,0.7,0.18,13.0,T-Motor 5143 Ultra-Light,5.1,4.3,3.7,Poly Carbonate,1,165.6,74.0,21041.1,0.0679312,19.9185,0.602323,2.40929,6305.09,0.00730837,2.14293,0.237616,6.99977
50156,53,53,53,53,53,2200,7.4,2S1P,50,20.0,87.2,34.0,130.0,10.0,EMAX ECO Micro Series 1106,2.0,14.2,19.9,9N12P,6000,6.7,1.2,0.19,13.0,KingKong 6040,6.0,4.0,3.38,Plastic,1,170.32,66.0,13471.7,0.0431789,27.1301,0.367505,1.47002,5250.18,0.00755382,4.7462,0.240109,6.95293
33319,35,35,35,35,35,1550,11.1,3S1P,75,27.5,72.0,36.0,136.0,18.0,iFlight XING X1404 ,2.0,18.3,12.5,,3800,8.5,,0.28,17.0,Gemfan 5050 3-Blades BN,5.0,5.0,5.0,Poly Carbonate,1,190.0,90.0,16592.2,0.0604337,24.0487,0.463815,1.85526,5713.35,0.00840824,3.34593,0.219854,6.94873
31347,33,33,33,33,33,1550,11.1,3S1P,45,25.0,72.0,36.5,128.0,18.0,iFlight XING X1404 ,2.0,18.3,12.5,,3800,8.5,,0.28,17.0,Gemfan Hurricane 51499,5.1,4.99,5.2,Poly Carbonate,1,182.8,90.0,16177.3,0.0614137,24.4386,0.466246,1.86498,5555.01,0.00850074,3.38274,0.217028,6.87312
10679,10,10,10,10,10,900,11.1,3S1P,45,19.5,52.0,33.5,80.0,18.0,iFlight XING X1404 ,2.0,18.3,12.5,,3000,8.5,,0.28,17.0,Gemfan 3052 - Flash,3.0,5.2,1.6,Poly Carbonate,1,120.4,90.0,26206.1,0.0268817,8.44515,0.274753,1.09901,11922,0.00626119,1.96701,0.407635,6.86321
14614,15,15,15,15,15,1050,11.1,3S1P,75,19.0,71.0,36.0,98.0,18.0,iFlight XING X1404 ,2.0,18.3,12.5,,3000,8.5,,0.28,17.0,T-Motor 5143 Ultra-Light,5.1,4.3,3.7,Poly Carbonate,1,146.8,90.0,18777.4,0.0550321,17.2889,0.486288,1.94515,6305.09,0.00730837,2.29599,0.247259,6.85978
13681,14,14,14,14,14,1050,11.1,3S1P,45,25.0,75.0,20.0,85.0,18.0,EMAX ECO Micro Series 1407,2.0,18.8,31.2,9N12P,3300,13.7,0.9,0.148,13.0,Gemfan 5040 R,5.0,4.0,3.0,ABS,1,151.8,74.0,24690.9,0.0707381,24.4453,0.685233,2.74093,6908.24,0.00670332,2.3165,0.219482,6.79905
31258,33,33,33,33,33,1550,11.1,3S1P,45,25.0,72.0,36.5,128.0,18.0,TMOTOR F15,1.5,14.4,13.3,,4500,7.8,,0.197,14.0,T-Motor 5143 Ultra-Light,5.1,4.3,3.7,Poly Carbonate,1,174.0,78.0,21192.5,0.0688384,32.4393,0.610499,2.44199,6305.08,0.00730798,3.44363,0.187344,6.7516
43251,46,46,46,46,46,1800,11.1,3S1P,75,23.0,105.0,35.0,160.0,18.0,EMAX ECO Micro Series 1106,2.0,14.2,19.9,9N12P,4500,6.7,0.6,0.3,13.0,Gemfan Hurricane 51499,5.1,4.99,5.2,Poly Carbonate,1,207.6,74.0,15187.5,0.0546433,25.75,0.414061,1.65624,5555.01,0.00850072,4.00586,0.219478,6.74012
39314,42,42,42,42,42,1800,11.1,3S1P,25,26.0,93.0,30.0,156.0,18.0,EMAX ECO Micro Series 1106,2.0,14.2,19.9,9N12P,4500,6.7,0.6,0.3,13.0,6045 plastic,6.0,4.5,6.0,Plastic,1,206.8,74.0,13342.2,0.0575438,27.1169,0.435736,1.74294,4749.42,0.0085136,4.01194,0.203514,6.72991
19546,20,20,20,20,20,1300,11.1,3S1P,25,24.0,70.0,35.0,115.0,18.0,iFlight XING X1404 ,2.0,18.3,12.5,,3800,8.5,,0.28,17.0,T-Motor 5143 Ultra-Light,5.1,4.3,3.7,Poly Carbonate,1,163.8,90.0,18808.3,0.0551998,21.9659,0.487794,1.95117,6305.09,0.00730837,2.90826,0.222842,6.70504
11664,11,11,11,11,11,1000,7.4,2S1P,25,14.0,70.0,36.0,70.0,10.0,iFlight XING X1404 ,2.0,18.3,12.5,,3800,8.5,,0.28,17.0,6030 Carbon Nylon,6.0,3.0,2.22,Carbon Nylon,1,112.88,82.0,16079.9,0.0284365,11.3159,0.323491,1.29397,6706.65,0.00564011,2.2444,0.323424,6.68331
38251,41,41,41,41,41,1800,7.4,2S1P,25,17.3,89.79,30.2,100.06,10.0,iFlight XING X1404 ,2.0,18.3,12.5,,4600,8.5,,0.28,17.0,Gemfan 5050 3-Blades BN,5.0,5.0,5.0,Poly Carbonate,1,154.06,82.0,12344.3,0.034968,16.8445,0.266001,1.064,5713.35,0.00840824,4.05034,0.321098,6.6661
20597,21,21,21,21,21,1300,11.1,3S1P,45,22.6,72.0,36.5,119.0,18.0,EMAX ECO Micro Series 1404,1.5,18.8,19.75,9N12P,3700,8.6,0.5,0.265,13.0,DALPROP 6040,6.0,4.0,4.32,Nylon,1,170.68,74.0,16689.5,0.0641748,24.8654,0.549726,2.1989,5250.18,0.00755382,2.92682,0.19771,6.66251
13628,14,14,14,14,14,1050,11.1,3S1P,45,25.0,75.0,20.0,85.0,18.0,iFlight XING X1404 ,2.0,18.3,12.5,,3000,8.5,,0.28,17.0,KingKong 6040,6.0,4.0,3.38,Plastic,1,132.52,90.0,16576.4,0.0633725,19.909,0.542742,2.17097,5250.18,0.00755382,2.3731,0.217525,6.63689
21561,22,22,22,22,22,1300,11.1,3S1P,75,22.3,72.0,36.0,122.0,18.0,EMAX ECO Micro Series 1407,2.0,18.8,31.2,9N12P,3300,13.7,0.9,0.148,13.0,Quanum Carbon Fiber Propeller 6045 Self-Locking,6.0,4.5,6.78,Carbon Fiber,2,203.92,78.0,18626,0.106672,36.8632,0.815871,3.26348,4749.42,0.0085136,2.94209,0.168887,6.62794
25355,26,26,26,26,26,1300,14.8,4S1P,75,32.0,72.0,36.0,160.0,27.0,TMOTOR F15,1.5,14.4,13.3,,4500,7.8,,0.197,14.0,Gemfan 3052 - Flash,3.0,5.2,1.6,Poly Carbonate,1,197.6,87.0,40952.3,0.0613944,28.9314,0.63596,2.54384,11922,0.00626119,2.95051,0.218282,6.60902
3664,3,3,3,3,3,450,11.1,3S1P,75,22.5,68.0,17.5,57.0,18.0,TMOTOR V2306 V2.0,4.0,27.9,30.3,,1950,32.0,,0.064,14.0,Carbon Fiber 5030,5.0,3.0,2.18,Carbon Fiber,2,193.72,82.0,21010.2,0.0249095,5.0866,0.319253,1.27701,8824.67,0.00500508,1.02205,0.413593,6.60435
38246,41,41,41,41,41,1800,7.4,2S1P,25,17.3,89.79,30.2,100.06,10.0,iFlight XING X1404 ,2.0,18.3,12.5,,4600,8.5,,0.28,17.0,6045 plastic,6.0,4.5,6.0,Plastic,1,158.06,82.0,10622.4,0.0377433,18.1814,0.283853,1.13541,4749.42,0.00851361,4.1011,0.294701,6.5836
29490,31,31,31,31,31,1550,7.4,2S1P,25,17.0,90.0,30.0,102.0,10.0,EMAX ECO Micro Series 1106,2.0,14.2,19.9,9N12P,6000,6.7,1.2,0.19,13.0,Gemfan 6030 Thick hub,6.0,3.0,5.23,Plastic,1,149.72,66.0,18362.3,0.0363511,22.8401,0.415177,1.66071,6706.65,0.0056401,3.54378,0.24204,6.56079
9744,9,9,9,9,9,850,14.8,4S1P,45,29.0,60.0,31.0,99.0,27.0,EMAX ECO Micro Series 1407,2.0,18.8,31.2,9N12P,3300,13.7,0.9,0.148,13.0,6030 Carbon Nylon,6.0,3.0,2.22,Carbon Nylon,1,162.68,83.0,31847.5,0.100679,34.7923,1.16904,4.67617,6706.65,0.0056401,1.94908,0.15681,6.54155
29480,31,31,31,31,31,1550,7.4,2S1P,25,17.0,90.0,30.0,102.0,10.0,EMAX ECO Micro Series 1106,2.0,14.2,19.9,9N12P,4500,6.7,0.6,0.3,13.0,KingKong 6040,6.0,4.0,3.38,Plastic,1,142.32,66.0,11800.4,0.0337952,15.9256,0.286497,1.14599,5250.18,0.00755368,3.55953,0.301968,6.53177
32237,34,34,34,34,34,1550,11.1,3S1P,75,27.0,72.0,36.0,136.0,18.0,TMOTOR F15,1.5,14.4,13.3,,4500,7.8,,0.197,14.0,DALPROP 6040,6.0,4.0,4.32,Nylon,1,184.48,78.0,18266.6,0.0758423,35.7398,0.651433,2.60573,5250.18,0.00755382,3.55965,0.168285,6.53154
2472,2,2,2,2,2,450,11.1,3S1P,25,15.0,56.0,31.0,45.0,18.0,TMOTOR V2208 V2.0,4.0,27.6,31.95,,1750,36.9,,0.065,17.5,6030 Carbon Nylon,6.0,3.0,2.22,Carbon Nylon,1,201.48,92.0,18645.5,0.037395,6.85298,0.427295,1.70918,6706.65,0.0056401,1.0336,0.351311,6.53055
40986,44,44,44,44,44,1800,11.1,3S1P,45,20.8,106.0,35.5,158.0,18.0,TMOTOR F1203,2.0,15.5,14.05,,7000,4.45,,0.198,15.0,Gemfan 6030 Thick hub,6.0,3.0,5.23,Plastic,1,196.72,82.0,22759.5,0.0540758,39.6396,0.621606,2.48643,6706.65,0.00564011,4.13441,0.160064,6.53055
14699,15,15,15,15,15,1050,11.1,3S1P,75,19.0,71.0,36.0,98.0,18.0,EMAX ECO Micro Series 1404,1.5,18.8,19.75,9N12P,3700,8.6,0.5,0.265,13.0,Gemfan 3052 - Flash,3.0,5.2,1.6,Poly Carbonate,1,138.8,74.0,28861.2,0.0321362,12.4516,0.32941,1.31764,11922,0.00626119,2.42598,0.348201,6.49222
17591,18,18,18,18,18,1300,7.4,2S1P,25,17.0,70.0,35.0,88.0,10.0,iFlight XING X1404 ,2.0,18.3,12.5,,4600,8.5,,0.28,17.0,Gemfan 3052 - Flash,3.0,5.2,1.6,Poly Carbonate,1,128.4,82.0,21986.6,0.019427,9.35822,0.197517,0.790067,11922,0.00626119,3.01608,0.464356,6.46534
38341,41,41,41,41,41,1800,7.4,2S1P,25,17.3,89.79,30.2,100.06,10.0,EMAX ECO Micro Series 1106,2.0,14.2,19.9,9N12P,6000,6.7,1.2,0.19,13.0,Gemfan 5040 R,5.0,4.0,3.0,ABS,1,138.86,66.0,17525.6,0.0375193,23.574,0.359727,1.43891,6908.22,0.00670141,4.20945,0.263671,6.41414
8716,8,8,8,8,8,850,11.1,3S1P,45,22.2,60.0,30.4,76.0,18.0,iFlight XING X1404 ,2.0,18.3,12.5,,3800,8.5,,0.28,17.0,Carbon Fiber 5030,5.0,3.0,2.18,Carbon Fiber,2,118.72,94.0,26253.5,0.0376154,14.9685,0.485333,1.94133,8824.67,0.00500508,1.9917,0.259455,6.40158
29396,31,31,31,31,31,1550,7.4,2S1P,25,17.0,90.0,30.0,102.0,10.0,iFlight XING X1404 ,2.0,18.3,12.5,,4600,8.5,,0.28,17.0,KingKong 6040,6.0,4.0,3.38,Plastic,1,149.52,82.0,12094.6,0.0353704,17.0383,0.300073,1.20029,5250.18,0.00755381,3.63875,0.291918,6.38955
29438,31,31,31,31,31,1550,7.4,2S1P,25,17.0,90.0,30.0,102.0,10.0,EMAX ECO Micro Series 1407,2.0,18.8,31.2,9N12P,4100,13.7,1.1,0.102,13.0,6045 plastic,6.0,4.5,6.0,Plastic,1,180.8,66.0,15955.3,0.0801131,34.3967,0.6099,2.4396,4749.42,0.0085136,3.65532,0.206924,6.36059
32128,34,34,34,34,34,1550,11.1,3S1P,75,27.0,72.0,36.0,136.0,18.0,TMOTOR F1203,2.0,15.5,14.05,,7000,4.45,,0.198,15.0,Carbon Fiber 5030,5.0,3.0,2.18,Carbon Fiber,2,162.52,86.0,29696.8,0.0472477,34.6344,0.611871,2.44749,8824.67,0.00500508,3.66891,0.179019,6.33703
12641,12,12,12,12,12,1000,11.1,3S1P,25,19.0,72.0,36.0,96.0,18.0,iFlight XING X1404 ,2.0,18.3,12.5,,3000,8.5,,0.28,17.0,DALPROP 6040,6.0,4.0,4.32,Nylon,1,147.28,90.0,16576.4,0.0633725,19.909,0.542742,2.17097,5250.18,0.00755382,2.3731,0.217525,6.32084
13670,14,14,14,14,14,1050,11.1,3S1P,45,25.0,75.0,20.0,85.0,18.0,EMAX ECO Micro Series 1407,2.0,18.8,31.2,9N12P,2800,13.7,0.7,0.18,13.0,6045 plastic,6.0,4.5,6.0,Plastic,1,163.8,74.0,17311.8,0.0931667,27.3179,0.711014,2.84406,4749.42,0.0085136,2.49632,0.193294,6.30929
48187,51,51,51,51,51,2200,7.4,2S1P,25,18.53,106.0,34.0,135.6,10.0,EMAX ECO Micro Series 1106,2.0,14.2,19.9,9N12P,6000,6.7,1.2,0.19,13.0,Gemfan 5050 3-Blades BN,5.0,5.0,5.0,Poly Carbonate,1,182.4,66.0,13764.2,0.0427706,26.8735,0.326419,1.30568,5713.35,0.00840824,5.28305,0.264325,6.24639
21574,22,22,22,22,22,1300,11.1,3S1P,75,22.3,72.0,36.0,122.0,18.0,EMAX ECO Micro Series 1407,2.0,18.8,31.2,9N12P,4100,13.7,1.1,0.102,13.0,T-Motor 5143 Ultra-Light,5.1,4.3,3.7,Poly Carbonate,1,191.6,74.0,26639,0.105099,45.1244,0.938498,3.75399,6305.09,0.00730837,3.13786,0.167377,6.21443
23560,24,24,24,24,24,1300,14.8,4s1p,45,29.8,72.0,36.5,154.0,27.0,EMAX ECO Micro Series 1404,1.5,18.8,19.75,9N12P,6000,8.6,1.0,0.12,13.0,Carbon Fiber 5030,5.0,3.0,2.18,Carbon Fiber,2,197.12,87.0,44197.2,0.0985938,61.9483,1.29214,5.16856,8824.67,0.00500508,3.14478,0.124875,6.20075
12714,12,12,12,12,12,1000,11.1,3S1P,25,19.0,72.0,36.0,96.0,18.0,EMAX ECO Micro Series 1407,2.0,18.8,31.2,9N12P,4100,13.7,1.1,0.102,13.0,Gemfan 6030 Thick hub,6.0,3.0,5.23,Plastic,1,171.72,74.0,29661.2,0.0882675,37.8977,1.02274,4.09095,6706.65,0.0056401,2.42158,0.169619,6.19429
3582,3,3,3,3,3,450,11.1,3S1P,75,22.5,68.0,17.5,57.0,18.0,TMOTOR P2505,4.0,30.4,28.8,,1850,31.25,,0.069,25.0,Gemfan 6030 Thick hub,6.0,3.0,5.23,Plastic,1,202.92,122.0,19527.7,0.0407338,7.89142,0.466093,1.86437,6706.65,0.0056401,1.09267,0.333388,6.17755
23569,24,24,24,24,24,1300,14.8,4s1p,45,29.8,72.0,36.5,154.0,27.0,EMAX ECO Micro Series 1106,2.0,14.2,19.9,9N12P,4500,6.7,0.6,0.3,13.0,Gemfan 5040 R,5.0,4.0,3.0,ABS,1,192.8,83.0,23976.7,0.0669995,31.5728,0.648447,2.59379,6908.24,0.00670332,3.15887,0.167758,6.1731
48158,51,51,51,51,51,2200,7.4,2S1P,25,18.53,106.0,34.0,135.6,10.0,EMAX ECO Micro Series 1404,1.5,18.8,19.75,9N12P,6000,8.6,1.0,0.12,13.0,6045 plastic,6.0,4.5,6.0,Plastic,1,194.0,66.0,14404.4,0.0663048,41.6605,0.503231,2.01292,4749.42,0.0085136,5.34926,0.193714,6.16908
28306,29,29,29,29,29,1400,11.1,3S1P,50,19.5,85.0,35.0,131.0,18.0,TMOTOR F15,1.5,14.4,13.3,,4500,7.8,,0.197,14.0,T-Motor 5143 Ultra-Light,5.1,4.3,3.7,Poly Carbonate,1,177.0,78.0,21192.5,0.0688384,32.4393,0.610499,2.44199,6305.08,0.00730798,3.44363,0.187344,6.09822
17581,18,18,18,18,18,1300,7.4,2S1P,25,17.0,70.0,35.0,88.0,10.0,iFlight XING X1404 ,2.0,18.3,12.5,,4600,8.5,,0.28,17.0,Gemfan 5040 R,5.0,4.0,3.0,ABS,1,134.0,82.0,15497.8,0.0298854,14.3961,0.28548,1.14192,6908.24,0.00670332,3.22906,0.325125,6.03891
13688,14,14,14,14,14,1050,11.1,3S1P,45,25.0,75.0,20.0,85.0,18.0,EMAX ECO Micro Series 1407,2.0,18.8,31.2,9N12P,3300,13.7,0.9,0.148,13.0,KingKong 6040,6.0,4.0,3.38,Plastic,1,153.32,74.0,20616.9,0.0948761,32.7868,0.817885,3.27154,5250.18,0.00755382,2.61041,0.178136,6.03353
19601,20,20,20,20,20,1300,11.1,3S1P,25,24.0,70.0,35.0,115.0,18.0,EMAX ECO Micro Series 1407,2.0,18.8,31.2,9N12P,4100,13.7,1.1,0.102,13.0,DALPROP 6040,6.0,4.0,4.32,Nylon,1,187.08,74.0,23613.3,0.12195,52.3595,1.05557,4.22227,5250.18,0.00755382,3.24324,0.145166,6.01251
12693,12,12,12,12,12,1000,11.1,3S1P,25,19.0,72.0,36.0,96.0,18.0,EMAX ECO Micro Series 1407,2.0,18.8,31.2,9N12P,2800,13.7,0.7,0.18,13.0,Quanum Carbon Fiber Propeller 6045 Self-Locking,6.0,4.5,6.78,Carbon Fiber,2,177.92,78.0,17311.8,0.0931667,27.3179,0.711014,2.84406,4749.42,0.0085136,2.49632,0.193294,6.00885