File: Aldo/Propulsion/Datasets/Results/ThrustFilteredCombinations.csv
,Capacity (mah),Nominal voltage (V),Cells configuration,Discharge (C),Battery height (mm),Bettry length (mm),Battery width (mm),Battery weight (g),Battery price (€),Motor name,Shaft diameter (mm),Motor diameter (mm),Motor height (mm),Magnetic poles,KV (rpm/V),Motor weight (g),No load current @10V (A),Resistance (Ohm),Motor price (€),Propeller Name,Propeller diameter (in),Propeller pitch (in),Propeller weight (g),Propeller material,Propeller price (€),Total weight (g),Total price (€),Peak rotational speed (rpm),Peak torque (Nm),Peak current (A),Peak thrust (kgf),Total thrust (kgf),Hovering rotational speed (rpm),Hovering torque (Nm),Hovering current (A),Hovering PWM,Hovering time (m)
24,300,7.4,2S1P,25,13.5,51.5,19.0,20.0,20.0,DYS D2225-12,3.175,22.0,25.0,,2000,32.0,,0.143,,6030 Carbon Nylon,6.0,3.0,2.22,Carbon Nylon,1.5,156.88,,13557.7,0.0207394,4.34366,0.234726,0.938902,,,,,
25,300,7.4,2S1P,25,13.5,51.5,19.0,20.0,20.0,DYS D2225-12,3.175,22.0,25.0,,2000,32.0,,0.143,,Gemfan 5040 R,5.0,4.0,3.0,ABS,,160.0,,13427.1,0.0229206,4.80047,0.218009,0.872034,,,,,
26,300,7.4,2S1P,25,13.5,51.5,19.0,20.0,20.0,DYS D2225-12,3.175,22.0,25.0,,2000,32.0,,0.143,,6045 plastic,6.0,4.5,6.0,Plastic,,172.0,,11977.1,0.0471277,9.87041,0.355709,1.42283,,,,,
27,300,7.4,2S1P,25,13.5,51.5,19.0,20.0,20.0,DYS D2225-12,3.175,22.0,25.0,,2000,32.0,,0.143,,Gemfan Hurricane 51499,5.1,4.99,5.2,Poly Carbonate,,168.8,,12512.7,0.0381849,7.99742,0.28767,1.15068,5555.01,0.00850074,1.78039,0.409743,2.52753
28,300,7.4,2S1P,25,13.5,51.5,19.0,20.0,20.0,DYS D2225-12,3.175,22.0,25.0,,2000,32.0,,0.143,,Carbon Fiber 5030,5.0,3.0,2.18,Carbon Fiber,,156.72,,14087.7,0.0118912,2.49048,0.150587,0.602348,,,,,
29,300,7.4,2S1P,25,13.5,51.5,19.0,20.0,20.0,DYS D2225-12,3.175,22.0,25.0,,2000,32.0,,0.143,,DALPROP 6040,6.0,4.0,4.32,Nylon,,165.28,,12536.1,0.0377956,7.91589,0.320992,1.28397,5250.18,0.00755382,1.58207,0.385315,2.84438
30,300,7.4,2S1P,25,13.5,51.5,19.0,20.0,20.0,DYS D2225-12,3.175,22.0,25.0,,2000,32.0,,0.143,,Gemfan 6030 Thick hub,6.0,3.0,5.23,Plastic,,168.92,,13557.7,0.0207394,4.34366,0.234726,0.938902,,,,,
31,300,7.4,2S1P,25,13.5,51.5,19.0,20.0,20.0,DYS D2225-12,3.175,22.0,25.0,,2000,32.0,,0.143,,Gemfan 5050 3-Blades BN,5.0,5.0,5.0,Poly Carbonate,,168.0,,12618.5,0.0364186,7.6275,0.277218,1.10887,5713.35,0.00840824,1.76102,0.420068,2.55534
32,300,7.4,2S1P,25,13.5,51.5,19.0,20.0,20.0,DYS D2225-12,3.175,22.0,25.0,,2000,32.0,,0.143,,KingKong 6040,6.0,4.0,3.38,Plastic,,161.52,,12536.1,0.0377956,7.91589,0.320992,1.28397,5250.18,0.00755382,1.58207,0.385315,2.84438
33,300,7.4,2S1P,25,13.5,51.5,19.0,20.0,20.0,DYS D2225-12,3.175,22.0,25.0,,2000,32.0,,0.143,,Quanum Carbon Fiber Propeller 6045 Self-Locking,6.0,4.5,6.78,Carbon Fiber,,175.12,,11977.1,0.0471277,9.87041,0.355709,1.42283,,,,,
34,300,7.4,2S1P,25,13.5,51.5,19.0,20.0,20.0,DYS D2225-12,3.175,22.0,25.0,,2000,32.0,,0.143,,T-Motor 5143 Ultra-Light,5.1,4.3,3.7,Poly Carbonate,,162.8,,13105.3,0.0282924,5.92554,0.247321,0.989284,,,,,
36,300,7.4,2S1P,25,13.5,51.5,19.0,20.0,20.0,DYS D2225-15,3.175,22.0,25.0,,1600,32.0,,0.203,,6030 Carbon Nylon,6.0,3.0,2.22,Carbon Nylon,1.5,156.88,,11065,0.0142416,2.38621,0.160205,0.640819,,,,,
38,300,7.4,2S1P,25,13.5,51.5,19.0,20.0,20.0,DYS D2225-15,3.175,22.0,25.0,,1600,32.0,,0.203,,6045 plastic,6.0,4.5,6.0,Plastic,,172.0,,10002.3,0.0337686,5.65798,0.253503,1.01401,,,,,
39,300,7.4,2S1P,25,13.5,51.5,19.0,20.0,20.0,DYS D2225-15,3.175,22.0,25.0,,1600,32.0,,0.203,,Gemfan Hurricane 51499,5.1,4.99,5.2,Poly Carbonate,,168.8,,10371.5,0.0269836,4.52114,0.202142,0.808569,5555.01,0.00850074,1.42431,0.508246,3.15942
41,300,7.4,2S1P,25,13.5,51.5,19.0,20.0,20.0,DYS D2225-15,3.175,22.0,25.0,,1600,32.0,,0.203,,DALPROP 6040,6.0,4.0,4.32,Nylon,,165.28,,10387.4,0.026692,4.47229,0.225416,0.901664,,,,,
42,300,7.4,2S1P,25,13.5,51.5,19.0,20.0,20.0,DYS D2225-15,3.175,22.0,25.0,,1600,32.0,,0.203,,Gemfan 6030 Thick hub,6.0,3.0,5.23,Plastic,,168.92,,11065,0.0142416,2.38621,0.160205,0.640819,,,,,
43,300,7.4,2S1P,25,13.5,51.5,19.0,20.0,20.0,DYS D2225-15,3.175,22.0,25.0,,1600,32.0,,0.203,,Gemfan 5050 3-Blades BN,5.0,5.0,5.0,Poly Carbonate,,168.0,,10443.4,0.0256633,4.29993,0.194243,0.776974,5713.35,0.00840824,1.40881,0.521194,3.19417
44,300,7.4,2S1P,25,13.5,51.5,19.0,20.0,20.0,DYS D2225-15,3.175,22.0,25.0,,1600,32.0,,0.203,,KingKong 6040,6.0,4.0,3.38,Plastic,,161.52,,10387.4,0.026692,4.47229,0.225416,0.901664,,,,,
45,300,7.4,2S1P,25,13.5,51.5,19.0,20.0,20.0,DYS D2225-15,3.175,22.0,25.0,,1600,32.0,,0.203,,Quanum Carbon Fiber Propeller 6045 Self-Locking,6.0,4.5,6.78,Carbon Fiber,,175.12,,10002.3,0.0337686,5.65798,0.253503,1.01401,,,,,
46,300,7.4,2S1P,25,13.5,51.5,19.0,20.0,20.0,DYS D2225-15,3.175,22.0,25.0,,1600,32.0,,0.203,,T-Motor 5143 Ultra-Light,5.1,4.3,3.7,Poly Carbonate,,162.8,,10769.2,0.0196759,3.29672,0.170989,0.683955,,,,,
216,300,7.4,2S1P,25,13.5,51.5,19.0,20.0,20.0,DYS D2822-8,3.175,28.0,22.0,,2600,38.0,,0.044,,6030 Carbon Nylon,6.0,3.0,2.22,Carbon Nylon,1.5,180.88,,18133.7,0.0355182,9.6706,0.405512,1.62205,6706.65,0.0056401,1.53564,0.357709,2.93038
217,300,7.4,2S1P,25,13.5,51.5,19.0,20.0,20.0,DYS D2822-8,3.175,28.0,22.0,,2600,38.0,,0.044,,Gemfan 5040 R,5.0,4.0,3.0,ABS,,184.0,,18010.8,0.0394635,10.7448,0.378679,1.51471,6908.24,0.00670332,1.82512,0.369908,2.46559
218,300,7.4,2S1P,25,13.5,51.5,19.0,20.0,20.0,DYS D2822-8,3.175,28.0,22.0,,2600,38.0,,0.044,,6045 plastic,6.0,4.5,6.0,Plastic,,196.0,,16565.3,0.0858711,23.3803,0.654471,2.61789,,,,,
219,300,7.4,2S1P,25,13.5,51.5,19.0,20.0,20.0,DYS D2822-8,3.175,28.0,22.0,,2600,38.0,,0.044,,Gemfan Hurricane 51499,5.1,4.99,5.2,Poly Carbonate,,192.8,,17116.6,0.0681727,18.5615,0.518437,2.07375,5555.01,0.00850074,2.31451,0.302484,1.94426
220,300,7.4,2S1P,25,13.5,51.5,19.0,20.0,20.0,DYS D2822-8,3.175,28.0,22.0,,2600,38.0,,0.044,,Carbon Fiber 5030,5.0,3.0,2.18,Carbon Fiber,,180.72,,18619.5,0.0199209,5.4239,0.254394,1.01758,8824.67,0.00500508,1.36274,0.466765,3.30217
221,300,7.4,2S1P,25,13.5,51.5,19.0,20.0,20.0,DYS D2822-8,3.175,28.0,22.0,,2600,38.0,,0.044,,DALPROP 6040,6.0,4.0,4.32,Nylon,,189.28,,17140.1,0.0674169,18.3557,0.57796,2.31184,5250.18,0.00755382,2.05669,0.285108,2.18798
222,300,7.4,2S1P,25,13.5,51.5,19.0,20.0,20.0,DYS D2822-8,3.175,28.0,22.0,,2600,38.0,,0.044,,Gemfan 6030 Thick hub,6.0,3.0,5.23,Plastic,,192.92,,18133.7,0.0355182,9.6706,0.405512,1.62205,6706.65,0.0056401,1.53564,0.357709,2.93038
223,300,7.4,2S1P,25,13.5,51.5,19.0,20.0,20.0,DYS D2822-8,3.175,28.0,22.0,,2600,38.0,,0.044,,Gemfan 5050 3-Blades BN,5.0,5.0,5.0,Poly Carbonate,,192.0,,17223.1,0.0647533,17.6305,0.497523,1.99009,5713.35,0.00840824,2.28932,0.310564,1.96565
224,300,7.4,2S1P,25,13.5,51.5,19.0,20.0,20.0,DYS D2822-8,3.175,28.0,22.0,,2600,38.0,,0.044,,KingKong 6040,6.0,4.0,3.38,Plastic,,185.52,,17140.1,0.0674169,18.3557,0.57796,2.31184,5250.18,0.00755382,2.05669,0.285108,2.18798
225,300,7.4,2S1P,25,13.5,51.5,19.0,20.0,20.0,DYS D2822-8,3.175,28.0,22.0,,2600,38.0,,0.044,,Quanum Carbon Fiber Propeller 6045 Self-Locking,6.0,4.5,6.78,Carbon Fiber,,199.12,,16565.3,0.0858711,23.3803,0.654471,2.61789,,,,,
226,300,7.4,2S1P,25,13.5,51.5,19.0,20.0,20.0,DYS D2822-8,3.175,28.0,22.0,,2600,38.0,,0.044,,T-Motor 5143 Ultra-Light,5.1,4.3,3.7,Poly Carbonate,,186.8,,17702.9,0.0493486,13.4362,0.435296,1.74118,6305.09,0.00730837,1.98986,0.339539,2.26146
228,300,7.4,2S1P,25,13.5,51.5,19.0,20.0,20.0,DYS D2822-12,3.175,28.0,22.0,,1800,38.0,,0.091,,6030 Carbon Nylon,6.0,3.0,2.22,Carbon Nylon,1.5,180.88,,12748.6,0.0185078,3.48864,0.209082,0.836328,,,,,
229,300,7.4,2S1P,25,13.5,51.5,19.0,20.0,20.0,DYS D2822-12,3.175,28.0,22.0,,1800,38.0,,0.091,,Gemfan 5040 R,5.0,4.0,3.0,ABS,,184.0,,12683.1,0.0206267,3.88804,0.195855,0.783421,,,,,
230,300,7.4,2S1P,25,13.5,51.5,19.0,20.0,20.0,DYS D2822-12,3.175,28.0,22.0,,1800,38.0,,0.091,,6045 plastic,6.0,4.5,6.0,Plastic,,196.0,,11885.4,0.0464629,8.75805,0.35061,1.40244,4749.42,0.0085136,1.60478,0.376297,2.80413
231,300,7.4,2S1P,25,13.5,51.5,19.0,20.0,20.0,DYS D2822-12,3.175,28.0,22.0,,1800,38.0,,0.091,,Gemfan Hurricane 51499,5.1,4.99,5.2,Poly Carbonate,,192.8,,12195.7,0.0364143,6.86392,0.27412,1.09648,5555.01,0.00850074,1.60235,0.436747,2.80837
233,300,7.4,2S1P,25,13.5,51.5,19.0,20.0,20.0,DYS D2822-12,3.175,28.0,22.0,,1800,38.0,,0.091,,DALPROP 6040,6.0,4.0,4.32,Nylon,,189.28,,12208.8,0.0359904,6.78403,0.305419,1.22167,5250.18,0.00755382,1.42386,0.411668,3.16042
234,300,7.4,2S1P,25,13.5,51.5,19.0,20.0,20.0,DYS D2822-12,3.175,28.0,22.0,,1800,38.0,,0.091,,Gemfan 6030 Thick hub,6.0,3.0,5.23,Plastic,,192.92,,12748.6,0.0185078,3.48864,0.209082,0.836328,,,,,
235,300,7.4,2S1P,25,13.5,51.5,19.0,20.0,20.0,DYS D2822-12,3.175,28.0,22.0,,1800,38.0,,0.091,,Gemfan 5050 3-Blades BN,5.0,5.0,5.0,Poly Carbonate,,192.0,,12254.8,0.0345003,6.50315,0.262385,1.04954,5713.35,0.00840824,1.58492,0.44842,2.83927
236,300,7.4,2S1P,25,13.5,51.5,19.0,20.0,20.0,DYS D2822-12,3.175,28.0,22.0,,1800,38.0,,0.091,,KingKong 6040,6.0,4.0,3.38,Plastic,,185.52,,12208.8,0.0359904,6.78403,0.305419,1.22167,5250.18,0.00755382,1.42386,0.411668,3.16042
237,300,7.4,2S1P,25,13.5,51.5,19.0,20.0,20.0,DYS D2822-12,3.175,28.0,22.0,,1800,38.0,,0.091,,Quanum Carbon Fiber Propeller 6045 Self-Locking,6.0,4.5,6.78,Carbon Fiber,,199.12,,11885.4,0.0464629,8.75805,0.35061,1.40244,4749.42,0.0085136,1.60478,0.376297,2.80413
238,300,7.4,2S1P,25,13.5,51.5,19.0,20.0,20.0,DYS D2822-12,3.175,28.0,22.0,,1800,38.0,,0.091,,T-Motor 5143 Ultra-Light,5.1,4.3,3.7,Poly Carbonate,,186.8,,12517.5,0.0259898,4.89897,0.226881,0.907522,6305.09,0.00730837,1.3776,0.490295,3.26656
242,300,7.4,2S1P,25,13.5,51.5,19.0,20.0,20.0,DYS D2822-14,3.175,28.0,22.0,,1450,38.0,,0.112,,6045 plastic,6.0,4.5,6.0,Plastic,,196.0,,9911.25,0.0332022,5.04154,0.249183,0.99673,,,,,
243,300,7.4,2S1P,25,13.5,51.5,19.0,20.0,20.0,DYS D2822-14,3.175,28.0,22.0,,1450,38.0,,0.112,,Gemfan Hurricane 51499,5.1,4.99,5.2,Poly Carbonate,,192.8,,10096.8,0.0256763,3.89878,0.192194,0.768778,5555.01,0.00850074,1.29078,0.537245,3.48625
245,300,7.4,2S1P,25,13.5,51.5,19.0,20.0,20.0,DYS D2822-14,3.175,28.0,22.0,,1450,38.0,,0.112,,DALPROP 6040,6.0,4.0,4.32,Nylon,,189.28,,10104.6,0.025363,3.85121,0.214015,0.856061,5250.18,0.00755382,1.147,0.50666,3.92328
247,300,7.4,2S1P,25,13.5,51.5,19.0,20.0,20.0,DYS D2822-14,3.175,28.0,22.0,,1450,38.0,,0.112,,Gemfan 5050 3-Blades BN,5.0,5.0,5.0,Poly Carbonate,,192.0,,10131.7,0.0242642,3.68436,0.183487,0.733947,,,,,
248,300,7.4,2S1P,25,13.5,51.5,19.0,20.0,20.0,DYS D2822-14,3.175,28.0,22.0,,1450,38.0,,0.112,,KingKong 6040,6.0,4.0,3.38,Plastic,,185.52,,10104.6,0.025363,3.85121,0.214015,0.856061,5250.18,0.00755382,1.147,0.50666,3.92328
249,300,7.4,2S1P,25,13.5,51.5,19.0,20.0,20.0,DYS D2822-14,3.175,28.0,22.0,,1450,38.0,,0.112,,Quanum Carbon Fiber Propeller 6045 Self-Locking,6.0,4.5,6.78,Carbon Fiber,,199.12,,9911.25,0.0332022,5.04154,0.249183,0.99673,,,,,
250,300,7.4,2S1P,25,13.5,51.5,19.0,20.0,20.0,DYS D2822-14,3.175,28.0,22.0,,1450,38.0,,0.112,,T-Motor 5143 Ultra-Light,5.1,4.3,3.7,Poly Carbonate,,186.8,,10284.4,0.0180687,2.74361,0.156805,0.627221,,,,,
254,300,7.4,2S1P,25,13.5,51.5,19.0,20.0,20.0,DYS D2822-17,3.175,28.0,22.0,,1100,38.0,,0.192,,6045 plastic,6.0,4.5,6.0,Plastic,,196.0,,7640.82,0.0205181,2.36352,0.152792,0.611167,,,,,
261,300,7.4,2S1P,25,13.5,51.5,19.0,20.0,20.0,DYS D2822-17,3.175,28.0,22.0,,1100,38.0,,0.192,,Quanum Carbon Fiber Propeller 6045 Self-Locking,6.0,4.5,6.78,Carbon Fiber,,199.12,,7640.82,0.0205181,2.36352,0.152792,0.611167,,,,,
264,300,7.4,2S1P,25,13.5,51.5,19.0,20.0,20.0,DYS D2812-14,3.175,28.0,12.0,,1600,22.0,,0.27,,6030 Carbon Nylon,6.0,3.0,2.22,Carbon Nylon,1.5,116.88,,10846.5,0.0137258,2.29978,0.15431,0.61724,,,,,
266,300,7.4,2S1P,25,13.5,51.5,19.0,20.0,20.0,DYS D2812-14,3.175,28.0,12.0,,1600,22.0,,0.27,,6045 plastic,6.0,4.5,6.0,Plastic,,132.0,,9582.25,0.031192,5.22627,0.233859,0.935438,,,,,
267,300,7.4,2S1P,25,13.5,51.5,19.0,20.0,20.0,DYS D2812-14,3.175,28.0,12.0,,1600,22.0,,0.27,,Gemfan Hurricane 51499,5.1,4.99,5.2,Poly Carbonate,,128.8,,10010.7,0.0252726,4.23446,0.189124,0.756496,,,,,
269,300,7.4,2S1P,25,13.5,51.5,19.0,20.0,20.0,DYS D2812-14,3.175,28.0,12.0,,1600,22.0,,0.27,,DALPROP 6040,6.0,4.0,4.32,Nylon,,125.28,,10029.4,0.0250149,4.19129,0.211031,0.844123,5250.18,0.00755382,1.26565,0.489607,3.55547
270,300,7.4,2S1P,25,13.5,51.5,19.0,20.0,20.0,DYS D2812-14,3.175,28.0,12.0,,1600,22.0,,0.27,,Gemfan 6030 Thick hub,6.0,3.0,5.23,Plastic,,128.92,,10846.5,0.0137258,2.29978,0.15431,0.61724,,,,,
271,300,7.4,2S1P,25,13.5,51.5,19.0,20.0,20.0,DYS D2812-14,3.175,28.0,12.0,,1600,22.0,,0.27,,Gemfan 5050 3-Blades BN,5.0,5.0,5.0,Poly Carbonate,,128.0,,10095.3,0.0241035,4.03858,0.182252,0.729007,,,,,
272,300,7.4,2S1P,25,13.5,51.5,19.0,20.0,20.0,DYS D2812-14,3.175,28.0,12.0,,1600,22.0,,0.27,,KingKong 6040,6.0,4.0,3.38,Plastic,,121.52,,10029.4,0.0250149,4.19129,0.211031,0.844123,5250.18,0.00755382,1.26565,0.489607,3.55547
273,300,7.4,2S1P,25,13.5,51.5,19.0,20.0,20.0,DYS D2812-14,3.175,28.0,12.0,,1600,22.0,,0.27,,Quanum Carbon Fiber Propeller 6045 Self-Locking,6.0,4.5,6.78,Carbon Fiber,,135.12,,9582.25,0.031192,5.22627,0.233859,0.935438,,,,,
274,300,7.4,2S1P,25,13.5,51.5,19.0,20.0,20.0,DYS D2812-14,3.175,28.0,12.0,,1600,22.0,,0.27,,T-Motor 5143 Ultra-Light,5.1,4.3,3.7,Poly Carbonate,,122.8,,10484.7,0.0187248,3.13737,0.162593,0.650373,6305.09,0.00730837,1.22453,0.577203,3.67488
504,300,7.4,2S1P,25,13.5,51.5,19.0,20.0,20.0,TMOTOR V2208 V2.0,4.0,27.6,31.95,,1750,36.9,,0.065,17.5,6030 Carbon Nylon,6.0,3.0,2.22,Carbon Nylon,1.5,176.48,96.0,12573.9,0.0180415,3.30628,0.20373,0.814919,,,,,
505,300,7.4,2S1P,25,13.5,51.5,19.0,20.0,20.0,TMOTOR V2208 V2.0,4.0,27.6,31.95,,1750,36.9,,0.065,17.5,Gemfan 5040 R,5.0,4.0,3.0,ABS,,179.6,,12529.6,0.0201671,3.69582,0.191422,0.765686,,,,,
506,300,7.4,2S1P,25,13.5,51.5,19.0,20.0,20.0,TMOTOR V2208 V2.0,4.0,27.6,31.95,,1750,36.9,,0.065,17.5,6045 plastic,6.0,4.5,6.0,Plastic,,191.6,,11968.8,0.0470679,8.62564,0.355249,1.421,,,,,
507,300,7.4,2S1P,25,13.5,51.5,19.0,20.0,20.0,TMOTOR V2208 V2.0,4.0,27.6,31.95,,1750,36.9,,0.065,17.5,Gemfan Hurricane 51499,5.1,4.99,5.2,Poly Carbonate,,188.4,,12191.4,0.0363906,6.66893,0.273939,1.09576,5555.01,0.00850074,1.55784,0.442642,2.88861
509,300,7.4,2S1P,25,13.5,51.5,19.0,20.0,20.0,TMOTOR V2208 V2.0,4.0,27.6,31.95,,1750,36.9,,0.065,17.5,DALPROP 6040,6.0,4.0,4.32,Nylon,,184.88,,12200.7,0.0359462,6.58749,0.305038,1.22015,5250.18,0.00755382,1.38431,0.417579,3.25072
510,300,7.4,2S1P,25,13.5,51.5,19.0,20.0,20.0,TMOTOR V2208 V2.0,4.0,27.6,31.95,,1750,36.9,,0.065,17.5,Gemfan 6030 Thick hub,6.0,3.0,5.23,Plastic,,188.52,,12573.9,0.0180415,3.30628,0.20373,0.814919,,,,,
511,300,7.4,2S1P,25,13.5,51.5,19.0,20.0,20.0,TMOTOR V2208 V2.0,4.0,27.6,31.95,,1750,36.9,,0.065,17.5,Gemfan 5050 3-Blades BN,5.0,5.0,5.0,Poly Carbonate,,187.6,,12233.2,0.0343877,6.30188,0.261516,1.04606,,,,,
512,300,7.4,2S1P,25,13.5,51.5,19.0,20.0,20.0,TMOTOR V2208 V2.0,4.0,27.6,31.95,,1750,36.9,,0.065,17.5,KingKong 6040,6.0,4.0,3.38,Plastic,,181.12,,12200.7,0.0359462,6.58749,0.305038,1.22015,5250.18,0.00755382,1.38431,0.417579,3.25072
513,300,7.4,2S1P,25,13.5,51.5,19.0,20.0,20.0,TMOTOR V2208 V2.0,4.0,27.6,31.95,,1750,36.9,,0.065,17.5,Quanum Carbon Fiber Propeller 6045 Self-Locking,6.0,4.5,6.78,Carbon Fiber,,194.72,,11968.8,0.0470679,8.62564,0.355249,1.421,,,,,
514,300,7.4,2S1P,25,13.5,51.5,19.0,20.0,20.0,TMOTOR V2208 V2.0,4.0,27.6,31.95,,1750,36.9,,0.065,17.5,T-Motor 5143 Ultra-Light,5.1,4.3,3.7,Poly Carbonate,,182.4,,12416.3,0.0256023,4.69186,0.223443,0.893771,6305.09,0.00730837,1.33933,0.498644,3.35989
516,300,7.4,2S1P,25,13.5,51.5,19.0,20.0,20.0,TMOTOR V2208 V2.0,4.0,27.6,31.95,,1950,37.2,,0.052,17.5,6030 Carbon Nylon,6.0,3.0,2.22,Carbon Nylon,1.5,177.68,96.0,13975.7,0.0219379,4.47981,0.248516,0.994066,,,,,
517,300,7.4,2S1P,25,13.5,51.5,19.0,20.0,20.0,TMOTOR V2208 V2.0,4.0,27.6,31.95,,1950,37.2,,0.052,17.5,Gemfan 5040 R,5.0,4.0,3.0,ABS,,180.8,,13922.5,0.0245096,5.00495,0.233377,0.933506,6908.24,0.00670332,1.36884,0.488361,3.28745
518,300,7.4,2S1P,25,13.5,51.5,19.0,20.0,20.0,TMOTOR V2208 V2.0,4.0,27.6,31.95,,1950,37.2,,0.052,17.5,6045 plastic,6.0,4.5,6.0,Plastic,,192.8,,13253.2,0.0568354,11.606,0.430285,1.72114,4749.42,0.0085136,1.73851,0.341352,2.58843
519,300,7.4,2S1P,25,13.5,51.5,19.0,20.0,20.0,TMOTOR V2208 V2.0,4.0,27.6,31.95,,1950,37.2,,0.052,17.5,Gemfan Hurricane 51499,5.1,4.99,5.2,Poly Carbonate,,189.6,,13517.8,0.0440523,8.99563,0.332643,1.33057,,,,,
520,300,7.4,2S1P,25,13.5,51.5,19.0,20.0,20.0,TMOTOR V2208 V2.0,4.0,27.6,31.95,,1950,37.2,,0.052,17.5,Carbon Fiber 5030,5.0,3.0,2.18,Carbon Fiber,,177.52,,14180.8,0.0120369,2.45797,0.152462,0.609849,8824.67,0.00500508,1.02205,0.618732,4.4029
521,300,7.4,2S1P,25,13.5,51.5,19.0,20.0,20.0,TMOTOR V2208 V2.0,4.0,27.6,31.95,,1950,37.2,,0.052,17.5,DALPROP 6040,6.0,4.0,4.32,Nylon,,186.08,,13528.9,0.0435189,8.88672,0.370446,1.48178,5250.18,0.00755382,1.54252,0.374677,2.91731
522,300,7.4,2S1P,25,13.5,51.5,19.0,20.0,20.0,TMOTOR V2208 V2.0,4.0,27.6,31.95,,1950,37.2,,0.052,17.5,Gemfan 6030 Thick hub,6.0,3.0,5.23,Plastic,,189.72,,13975.7,0.0219379,4.47981,0.248516,0.994066,,,,,
523,300,7.4,2S1P,25,13.5,51.5,19.0,20.0,20.0,TMOTOR V2208 V2.0,4.0,27.6,31.95,,1950,37.2,,0.052,17.5,Gemfan 5050 3-Blades BN,5.0,5.0,5.0,Poly Carbonate,,188.8,,13567.6,0.0416476,8.50458,0.317711,1.27085,,,,,
524,300,7.4,2S1P,25,13.5,51.5,19.0,20.0,20.0,TMOTOR V2208 V2.0,4.0,27.6,31.95,,1950,37.2,,0.052,17.5,KingKong 6040,6.0,4.0,3.38,Plastic,,182.32,,13528.9,0.0435189,8.88672,0.370446,1.48178,5250.18,0.00755382,1.54252,0.374677,2.91731
525,300,7.4,2S1P,25,13.5,51.5,19.0,20.0,20.0,TMOTOR V2208 V2.0,4.0,27.6,31.95,,1950,37.2,,0.052,17.5,Quanum Carbon Fiber Propeller 6045 Self-Locking,6.0,4.5,6.78,Carbon Fiber,,195.92,,13253.2,0.0568354,11.606,0.430285,1.72114,4749.42,0.0085136,1.73851,0.341352,2.58843
526,300,7.4,2S1P,25,13.5,51.5,19.0,20.0,20.0,TMOTOR V2208 V2.0,4.0,27.6,31.95,,1950,37.2,,0.052,17.5,T-Motor 5143 Ultra-Light,5.1,4.3,3.7,Poly Carbonate,,183.6,,13786.6,0.0310733,6.34528,0.272044,1.08818,,,,,
528,300,7.4,2S1P,25,13.5,51.5,19.0,20.0,20.0,TMOTOR V2208 V2.0,4.0,27.6,31.95,,2450,37.2,,0.041,17.5,6030 Carbon Nylon,6.0,3.0,2.22,Carbon Nylon,1.5,177.68,96.0,17291.7,0.0325276,8.34539,0.370839,1.48335,6706.65,0.0056401,1.44704,0.377937,3.10979
529,300,7.4,2S1P,25,13.5,51.5,19.0,20.0,20.0,TMOTOR V2208 V2.0,4.0,27.6,31.95,,2450,37.2,,0.041,17.5,Gemfan 5040 R,5.0,4.0,3.0,ABS,,180.8,,17196.4,0.0362259,9.29424,0.347129,1.38852,6908.24,0.00670332,1.71983,0.390568,2.61654
530,300,7.4,2S1P,25,13.5,51.5,19.0,20.0,20.0,TMOTOR V2208 V2.0,4.0,27.6,31.95,,2450,37.2,,0.041,17.5,6045 plastic,6.0,4.5,6.0,Plastic,,192.8,,16044,0.0809393,20.7661,0.616292,2.46517,,,,,
531,300,7.4,2S1P,25,13.5,51.5,19.0,20.0,20.0,TMOTOR V2208 V2.0,4.0,27.6,31.95,,2450,37.2,,0.041,17.5,Gemfan Hurricane 51499,5.1,4.99,5.2,Poly Carbonate,,189.6,,16490.2,0.0636291,16.3249,0.483343,1.93337,5555.01,0.00850074,2.18098,0.318483,2.06329
532,300,7.4,2S1P,25,13.5,51.5,19.0,20.0,20.0,TMOTOR V2208 V2.0,4.0,27.6,31.95,,2450,37.2,,0.041,17.5,Carbon Fiber 5030,5.0,3.0,2.18,Carbon Fiber,,177.52,,17664.3,0.0180716,4.6365,0.230413,0.921651,,,,,
533,300,7.4,2S1P,25,13.5,51.5,19.0,20.0,20.0,TMOTOR V2208 V2.0,4.0,27.6,31.95,,2450,37.2,,0.041,17.5,DALPROP 6040,6.0,4.0,4.32,Nylon,,186.08,,16509,0.0628968,16.137,0.538603,2.15441,5250.18,0.00755382,1.93803,0.300323,2.32194
534,300,7.4,2S1P,25,13.5,51.5,19.0,20.0,20.0,TMOTOR V2208 V2.0,4.0,27.6,31.95,,2450,37.2,,0.041,17.5,Gemfan 6030 Thick hub,6.0,3.0,5.23,Plastic,,189.72,,17291.7,0.0325276,8.34539,0.370839,1.48335,6706.65,0.0056401,1.44704,0.377937,3.10979
535,300,7.4,2S1P,25,13.5,51.5,19.0,20.0,20.0,TMOTOR V2208 V2.0,4.0,27.6,31.95,,2450,37.2,,0.041,17.5,Gemfan 5050 3-Blades BN,5.0,5.0,5.0,Poly Carbonate,,188.8,,16575.4,0.0603207,15.4761,0.462934,1.85173,,,,,
536,300,7.4,2S1P,25,13.5,51.5,19.0,20.0,20.0,TMOTOR V2208 V2.0,4.0,27.6,31.95,,2450,37.2,,0.041,17.5,KingKong 6040,6.0,4.0,3.38,Plastic,,182.32,,16509,0.0628968,16.137,0.538603,2.15441,5250.18,0.00755382,1.93803,0.300323,2.32194
537,300,7.4,2S1P,25,13.5,51.5,19.0,20.0,20.0,TMOTOR V2208 V2.0,4.0,27.6,31.95,,2450,37.2,,0.041,17.5,Quanum Carbon Fiber Propeller 6045 Self-Locking,6.0,4.5,6.78,Carbon Fiber,,195.92,,16044,0.0809393,20.7661,0.616292,2.46517,,,,,
538,300,7.4,2S1P,25,13.5,51.5,19.0,20.0,20.0,TMOTOR V2208 V2.0,4.0,27.6,31.95,,2450,37.2,,0.041,17.5,T-Motor 5143 Ultra-Light,5.1,4.3,3.7,Poly Carbonate,,183.6,,16955.7,0.0455646,11.6902,0.401398,1.60559,6305.09,0.00730837,1.87506,0.35816,2.39992
540,300,7.4,2S1P,25,13.5,51.5,19.0,20.0,20.0,TMOTOR V2306.5 V2.0,4.0,28.6,30.45,,1950,33.2,,0.067,17.5,6030 Carbon Nylon,6.0,3.0,2.22,Carbon Nylon,1.5,161.68,96.0,13854.1,0.021586,4.40794,0.244465,0.977861,,,,,
541,300,7.4,2S1P,25,13.5,51.5,19.0,20.0,20.0,TMOTOR V2306.5 V2.0,4.0,28.6,30.45,,1950,33.2,,0.067,17.5,Gemfan 5040 R,5.0,4.0,3.0,ABS,,164.8,,13787.8,0.0240726,4.91572,0.229149,0.916595,6908.24,0.00670332,1.36884,0.491135,3.28745
542,300,7.4,2S1P,25,13.5,51.5,19.0,20.0,20.0,TMOTOR V2306.5 V2.0,4.0,28.6,30.45,,1950,33.2,,0.067,17.5,6045 plastic,6.0,4.5,6.0,Plastic,,176.8,,12972.5,0.0546292,11.1555,0.413317,1.65327,,,,,
543,300,7.4,2S1P,25,13.5,51.5,19.0,20.0,20.0,TMOTOR V2306.5 V2.0,4.0,28.6,30.45,,1950,33.2,,0.067,17.5,Gemfan Hurricane 51499,5.1,4.99,5.2,Poly Carbonate,,173.6,,13291,0.0426942,8.7183,0.322224,1.2889,,,,,
544,300,7.4,2S1P,25,13.5,51.5,19.0,20.0,20.0,TMOTOR V2306.5 V2.0,4.0,28.6,30.45,,1950,33.2,,0.067,17.5,Carbon Fiber 5030,5.0,3.0,2.18,Carbon Fiber,,161.52,,14111.8,0.0119286,2.43586,0.15107,0.604282,,,,,
545,300,7.4,2S1P,25,13.5,51.5,19.0,20.0,20.0,TMOTOR V2306.5 V2.0,4.0,28.6,30.45,,1950,33.2,,0.067,17.5,DALPROP 6040,6.0,4.0,4.32,Nylon,,170.08,,13304.3,0.0421921,8.61579,0.358971,1.43589,5250.18,0.00755382,1.54252,0.377804,2.91731
546,300,7.4,2S1P,25,13.5,51.5,19.0,20.0,20.0,TMOTOR V2306.5 V2.0,4.0,28.6,30.45,,1950,33.2,,0.067,17.5,Gemfan 6030 Thick hub,6.0,3.0,5.23,Plastic,,173.72,,13854.1,0.021586,4.40794,0.244465,0.977861,,,,,
547,300,7.4,2S1P,25,13.5,51.5,19.0,20.0,20.0,TMOTOR V2306.5 V2.0,4.0,28.6,30.45,,1950,33.2,,0.067,17.5,Gemfan 5050 3-Blades BN,5.0,5.0,5.0,Poly Carbonate,,172.8,,13351.4,0.040428,8.25554,0.308259,1.23304,,,,,
548,300,7.4,2S1P,25,13.5,51.5,19.0,20.0,20.0,TMOTOR V2306.5 V2.0,4.0,28.6,30.45,,1950,33.2,,0.067,17.5,KingKong 6040,6.0,4.0,3.38,Plastic,,166.32,,13304.3,0.0421921,8.61579,0.358971,1.43589,5250.18,0.00755382,1.54252,0.377804,2.91731
549,300,7.4,2S1P,25,13.5,51.5,19.0,20.0,20.0,TMOTOR V2306.5 V2.0,4.0,28.6,30.45,,1950,33.2,,0.067,17.5,Quanum Carbon Fiber Propeller 6045 Self-Locking,6.0,4.5,6.78,Carbon Fiber,,179.92,,12972.5,0.0546292,11.1555,0.413317,1.65327,,,,,
550,300,7.4,2S1P,25,13.5,51.5,19.0,20.0,20.0,TMOTOR V2306.5 V2.0,4.0,28.6,30.45,,1950,33.2,,0.067,17.5,T-Motor 5143 Ultra-Light,5.1,4.3,3.7,Poly Carbonate,,167.6,,13619.5,0.0303801,6.20373,0.265878,1.06351,6305.09,0.00730837,1.4924,0.450455,3.01529
552,300,7.4,2S1P,25,13.5,51.5,19.0,20.0,20.0,TMOTOR V2306.5 V2.0,4.0,28.6,30.45,,2550,33.8,,0.047,17.5,6030 Carbon Nylon,6.0,3.0,2.22,Carbon Nylon,1.5,164.08,96.0,17774.6,0.0342279,9.14006,0.390546,1.56218,,,,,
553,300,7.4,2S1P,25,13.5,51.5,19.0,20.0,20.0,TMOTOR V2306.5 V2.0,4.0,28.6,30.45,,2550,33.8,,0.047,17.5,Gemfan 5040 R,5.0,4.0,3.0,ABS,,167.2,,17653,0.0380255,10.1542,0.364661,1.45864,6908.24,0.00670332,1.79002,0.377466,2.51393
554,300,7.4,2S1P,25,13.5,51.5,19.0,20.0,20.0,TMOTOR V2306.5 V2.0,4.0,28.6,30.45,,2550,33.8,,0.047,17.5,6045 plastic,6.0,4.5,6.0,Plastic,,179.2,,16225.2,0.0826383,22.0674,0.62944,2.51776,4749.42,0.0085136,2.27343,0.266131,1.97939
555,300,7.4,2S1P,25,13.5,51.5,19.0,20.0,20.0,TMOTOR V2306.5 V2.0,4.0,28.6,30.45,,2550,33.8,,0.047,17.5,Gemfan Hurricane 51499,5.1,4.99,5.2,Poly Carbonate,,176.0,,16769.4,0.0656365,17.5273,0.498842,1.99537,,,,,
556,300,7.4,2S1P,25,13.5,51.5,19.0,20.0,20.0,TMOTOR V2306.5 V2.0,4.0,28.6,30.45,,2550,33.8,,0.047,17.5,Carbon Fiber 5030,5.0,3.0,2.18,Carbon Fiber,,163.92,,18255.3,0.0192061,5.12871,0.24512,0.980481,,,,,
557,300,7.4,2S1P,25,13.5,51.5,19.0,20.0,20.0,TMOTOR V2306.5 V2.0,4.0,28.6,30.45,,2550,33.8,,0.047,17.5,DALPROP 6040,6.0,4.0,4.32,Nylon,,172.48,,16792.6,0.0649101,17.3333,0.556127,2.22451,,,,,
558,300,7.4,2S1P,25,13.5,51.5,19.0,20.0,20.0,TMOTOR V2306.5 V2.0,4.0,28.6,30.45,,2550,33.8,,0.047,17.5,Gemfan 6030 Thick hub,6.0,3.0,5.23,Plastic,,176.12,,17774.6,0.0342279,9.14006,0.390546,1.56218,,,,,
559,300,7.4,2S1P,25,13.5,51.5,19.0,20.0,20.0,TMOTOR V2306.5 V2.0,4.0,28.6,30.45,,2550,33.8,,0.047,17.5,Gemfan 5050 3-Blades BN,5.0,5.0,5.0,Poly Carbonate,,175.2,,16874.5,0.0623499,16.6496,0.478764,1.91505,5713.35,0.00840824,2.2453,0.317035,2.00419
560,300,7.4,2S1P,25,13.5,51.5,19.0,20.0,20.0,TMOTOR V2306.5 V2.0,4.0,28.6,30.45,,2550,33.8,,0.047,17.5,KingKong 6040,6.0,4.0,3.38,Plastic,,168.72,,16792.6,0.0649101,17.3333,0.556127,2.22451,,,,,
561,300,7.4,2S1P,25,13.5,51.5,19.0,20.0,20.0,TMOTOR V2306.5 V2.0,4.0,28.6,30.45,,2550,33.8,,0.047,17.5,Quanum Carbon Fiber Propeller 6045 Self-Locking,6.0,4.5,6.78,Carbon Fiber,,182.32,,16225.2,0.0826383,22.0674,0.62944,2.51776,4749.42,0.0085136,2.27343,0.266131,1.97939
562,300,7.4,2S1P,25,13.5,51.5,19.0,20.0,20.0,TMOTOR V2306.5 V2.0,4.0,28.6,30.45,,2550,33.8,,0.047,17.5,T-Motor 5143 Ultra-Light,5.1,4.3,3.7,Poly Carbonate,,170.0,,17348.6,0.0475371,12.6941,0.419063,1.67625,6305.09,0.00730837,1.95159,0.346528,2.30581
564,300,7.4,2S1P,25,13.5,51.5,19.0,20.0,20.0,TMOTOR V2307 V2.0,4.0,28.6,30.95,,1950,35.1,,0.067,17.5,6030 Carbon Nylon,6.0,3.0,2.22,Carbon Nylon,1.5,169.28,96.0,13854.1,0.021586,4.40794,0.244465,0.977861,,,,,
565,300,7.4,2S1P,25,13.5,51.5,19.0,20.0,20.0,TMOTOR V2307 V2.0,4.0,28.6,30.95,,1950,35.1,,0.067,17.5,Gemfan 5040 R,5.0,4.0,3.0,ABS,,172.4,,13787.8,0.0240726,4.91572,0.229149,0.916595,6908.24,0.00670332,1.36884,0.491135,3.28745
566,300,7.4,2S1P,25,13.5,51.5,19.0,20.0,20.0,TMOTOR V2307 V2.0,4.0,28.6,30.95,,1950,35.1,,0.067,17.5,6045 plastic,6.0,4.5,6.0,Plastic,,184.4,,12972.5,0.0546292,11.1555,0.413317,1.65327,,,,,
567,300,7.4,2S1P,25,13.5,51.5,19.0,20.0,20.0,TMOTOR V2307 V2.0,4.0,28.6,30.95,,1950,35.1,,0.067,17.5,Gemfan Hurricane 51499,5.1,4.99,5.2,Poly Carbonate,,181.2,,13291,0.0426942,8.7183,0.322224,1.2889,,,,,
568,300,7.4,2S1P,25,13.5,51.5,19.0,20.0,20.0,TMOTOR V2307 V2.0,4.0,28.6,30.95,,1950,35.1,,0.067,17.5,Carbon Fiber 5030,5.0,3.0,2.18,Carbon Fiber,,169.12,,14111.8,0.0119286,2.43586,0.15107,0.604282,,,,,
569,300,7.4,2S1P,25,13.5,51.5,19.0,20.0,20.0,TMOTOR V2307 V2.0,4.0,28.6,30.95,,1950,35.1,,0.067,17.5,DALPROP 6040,6.0,4.0,4.32,Nylon,,177.68,,13304.3,0.0421921,8.61579,0.358971,1.43589,5250.18,0.00755382,1.54252,0.377804,2.91731
570,300,7.4,2S1P,25,13.5,51.5,19.0,20.0,20.0,TMOTOR V2307 V2.0,4.0,28.6,30.95,,1950,35.1,,0.067,17.5,Gemfan 6030 Thick hub,6.0,3.0,5.23,Plastic,,181.32,,13854.1,0.021586,4.40794,0.244465,0.977861,,,,,
571,300,7.4,2S1P,25,13.5,51.5,19.0,20.0,20.0,TMOTOR V2307 V2.0,4.0,28.6,30.95,,1950,35.1,,0.067,17.5,Gemfan 5050 3-Blades BN,5.0,5.0,5.0,Poly Carbonate,,180.4,,13351.4,0.040428,8.25554,0.308259,1.23304,,,,,
572,300,7.4,2S1P,25,13.5,51.5,19.0,20.0,20.0,TMOTOR V2307 V2.0,4.0,28.6,30.95,,1950,35.1,,0.067,17.5,KingKong 6040,6.0,4.0,3.38,Plastic,,173.92,,13304.3,0.0421921,8.61579,0.358971,1.43589,5250.18,0.00755382,1.54252,0.377804,2.91731
573,300,7.4,2S1P,25,13.5,51.5,19.0,20.0,20.0,TMOTOR V2307 V2.0,4.0,28.6,30.95,,1950,35.1,,0.067,17.5,Quanum Carbon Fiber Propeller 6045 Self-Locking,6.0,4.5,6.78,Carbon Fiber,,187.52,,12972.5,0.0546292,11.1555,0.413317,1.65327,,,,,
574,300,7.4,2S1P,25,13.5,51.5,19.0,20.0,20.0,TMOTOR V2307 V2.0,4.0,28.6,30.95,,1950,35.1,,0.067,17.5,T-Motor 5143 Ultra-Light,5.1,4.3,3.7,Poly Carbonate,,175.2,,13619.5,0.0303801,6.20373,0.265878,1.06351,6305.09,0.00730837,1.4924,0.450455,3.01529
576,300,7.4,2S1P,25,13.5,51.5,19.0,20.0,20.0,TMOTOR V2307 V2.0,4.0,28.6,30.95,,2550,35.5,,0.0415,17.5,6030 Carbon Nylon,6.0,3.0,2.22,Carbon Nylon,1.5,170.88,96.0,17891,0.0346439,9.25113,0.395369,1.58148,,,,,
577,300,7.4,2S1P,25,13.5,51.5,19.0,20.0,20.0,TMOTOR V2307 V2.0,4.0,28.6,30.95,,2550,35.5,,0.0415,17.5,Gemfan 5040 R,5.0,4.0,3.0,ABS,,174.0,,17781,0.038537,10.2907,0.369646,1.47858,6908.24,0.00670332,1.79002,0.376135,2.51393
578,300,7.4,2S1P,25,13.5,51.5,19.0,20.0,20.0,TMOTOR V2307 V2.0,4.0,28.6,30.95,,2550,35.5,,0.0415,17.5,6045 plastic,6.0,4.5,6.0,Plastic,,186.0,,16469.3,0.0849529,22.6854,0.64736,2.58944,4749.42,0.0085136,2.27343,0.264441,1.97939
579,300,7.4,2S1P,25,13.5,51.5,19.0,20.0,20.0,TMOTOR V2307 V2.0,4.0,28.6,30.95,,2550,35.5,,0.0415,17.5,Gemfan Hurricane 51499,5.1,4.99,5.2,Poly Carbonate,,182.8,,16973.2,0.0671204,17.9235,0.510306,2.04122,,,,,
580,300,7.4,2S1P,25,13.5,51.5,19.0,20.0,20.0,TMOTOR V2307 V2.0,4.0,28.6,30.95,,2550,35.5,,0.0415,17.5,Carbon Fiber 5030,5.0,3.0,2.18,Carbon Fiber,,170.72,,18323.5,0.019339,5.1642,0.246844,0.987377,8824.67,0.00500508,1.33653,0.475151,3.36692
581,300,7.4,2S1P,25,13.5,51.5,19.0,20.0,20.0,TMOTOR V2307 V2.0,4.0,28.6,30.95,,2550,35.5,,0.0415,17.5,DALPROP 6040,6.0,4.0,4.32,Nylon,,179.28,,16994.7,0.0663624,17.7211,0.568774,2.2751,5250.18,0.00755382,2.01714,0.289541,2.23089
582,300,7.4,2S1P,25,13.5,51.5,19.0,20.0,20.0,TMOTOR V2307 V2.0,4.0,28.6,30.95,,2550,35.5,,0.0415,17.5,Gemfan 6030 Thick hub,6.0,3.0,5.23,Plastic,,182.92,,17891,0.0346439,9.25113,0.395369,1.58148,,,,,
583,300,7.4,2S1P,25,13.5,51.5,19.0,20.0,20.0,TMOTOR V2307 V2.0,4.0,28.6,30.95,,2550,35.5,,0.0415,17.5,Gemfan 5050 3-Blades BN,5.0,5.0,5.0,Poly Carbonate,,182.0,,17070.1,0.0636932,17.0083,0.489247,1.95699,5713.35,0.00840824,2.2453,0.315366,2.00419
584,300,7.4,2S1P,25,13.5,51.5,19.0,20.0,20.0,TMOTOR V2307 V2.0,4.0,28.6,30.95,,2550,35.5,,0.0415,17.5,KingKong 6040,6.0,4.0,3.38,Plastic,,175.52,,16994.7,0.0663624,17.7211,0.568774,2.2751,5250.18,0.00755382,2.01714,0.289541,2.23089
585,300,7.4,2S1P,25,13.5,51.5,19.0,20.0,20.0,TMOTOR V2307 V2.0,4.0,28.6,30.95,,2550,35.5,,0.0415,17.5,Quanum Carbon Fiber Propeller 6045 Self-Locking,6.0,4.5,6.78,Carbon Fiber,,189.12,,16469.3,0.0849529,22.6854,0.64736,2.58944,4749.42,0.0085136,2.27343,0.264441,1.97939
586,300,7.4,2S1P,25,13.5,51.5,19.0,20.0,20.0,TMOTOR V2307 V2.0,4.0,28.6,30.95,,2550,35.5,,0.0415,17.5,T-Motor 5143 Ultra-Light,5.1,4.3,3.7,Poly Carbonate,,176.8,,17504.3,0.0483291,12.9056,0.426159,1.70464,6305.09,0.00730837,1.95159,0.345078,2.30581
588,300,7.4,2S1P,25,13.5,51.5,19.0,20.0,20.0,TMOTOR P2207 V2.0,4.0,28.1,31.0,,1750,33.9,,0.0612,22.0,6030 Carbon Nylon,6.0,3.0,2.22,Carbon Nylon,1.5,164.48,114.0,12594.8,0.018097,3.31645,0.204367,0.817467,,,,,
589,300,7.4,2S1P,25,13.5,51.5,19.0,20.0,20.0,TMOTOR P2207 V2.0,4.0,28.1,31.0,,1750,33.9,,0.0612,22.0,Gemfan 5040 R,5.0,4.0,3.0,ABS,,167.6,,12552.8,0.0202363,3.7085,0.192089,0.768356,,,,,
590,300,7.4,2S1P,25,13.5,51.5,19.0,20.0,20.0,TMOTOR P2207 V2.0,4.0,28.1,31.0,,1750,33.9,,0.0612,22.0,6045 plastic,6.0,4.5,6.0,Plastic,,179.6,,12019,0.0474336,8.69266,0.358055,1.43222,4749.42,0.0085136,1.5602,0.379654,2.88425
591,300,7.4,2S1P,25,13.5,51.5,19.0,20.0,20.0,TMOTOR P2207 V2.0,4.0,28.1,31.0,,1750,33.9,,0.0612,22.0,Gemfan Hurricane 51499,5.1,4.99,5.2,Poly Carbonate,,176.4,,12231.4,0.0366118,6.70947,0.275631,1.10253,,,,,
593,300,7.4,2S1P,25,13.5,51.5,19.0,20.0,20.0,TMOTOR P2207 V2.0,4.0,28.1,31.0,,1750,33.9,,0.0612,22.0,DALPROP 6040,6.0,4.0,4.32,Nylon,,172.88,,12240.2,0.0361622,6.62707,0.3069,1.2276,,,,,
594,300,7.4,2S1P,25,13.5,51.5,19.0,20.0,20.0,TMOTOR P2207 V2.0,4.0,28.1,31.0,,1750,33.9,,0.0612,22.0,Gemfan 6030 Thick hub,6.0,3.0,5.23,Plastic,,176.52,,12594.8,0.018097,3.31645,0.204367,0.817467,,,,,
595,300,7.4,2S1P,25,13.5,51.5,19.0,20.0,20.0,TMOTOR P2207 V2.0,4.0,28.1,31.0,,1750,33.9,,0.0612,22.0,Gemfan 5050 3-Blades BN,5.0,5.0,5.0,Poly Carbonate,,175.6,,12271.2,0.0345857,6.33816,0.263046,1.05218,5713.35,0.00840824,1.54089,0.453929,2.92039
596,300,7.4,2S1P,25,13.5,51.5,19.0,20.0,20.0,TMOTOR P2207 V2.0,4.0,28.1,31.0,,1750,33.9,,0.0612,22.0,KingKong 6040,6.0,4.0,3.38,Plastic,,169.12,,12240.2,0.0361622,6.62707,0.3069,1.2276,,,,,
597,300,7.4,2S1P,25,13.5,51.5,19.0,20.0,20.0,TMOTOR P2207 V2.0,4.0,28.1,31.0,,1750,33.9,,0.0612,22.0,Quanum Carbon Fiber Propeller 6045 Self-Locking,6.0,4.5,6.78,Carbon Fiber,,182.72,,12019,0.0474336,8.69266,0.358055,1.43222,4749.42,0.0085136,1.5602,0.379654,2.88425
598,300,7.4,2S1P,25,13.5,51.5,19.0,20.0,20.0,TMOTOR P2207 V2.0,4.0,28.1,31.0,,1750,33.9,,0.0612,22.0,T-Motor 5143 Ultra-Light,5.1,4.3,3.7,Poly Carbonate,,170.4,,12445.3,0.0257131,4.71217,0.224426,0.897703,,,,,
600,300,7.4,2S1P,25,13.5,51.5,19.0,20.0,20.0,TMOTOR P2207 V2.0,4.0,28.1,31.0,,1950,33.7,,0.0565,22.0,6030 Carbon Nylon,6.0,3.0,2.22,Carbon Nylon,1.5,163.68,114.0,13938.8,0.0218309,4.45795,0.247284,0.989137,,,,,
601,300,7.4,2S1P,25,13.5,51.5,19.0,20.0,20.0,TMOTOR P2207 V2.0,4.0,28.1,31.0,,1950,33.7,,0.0565,22.0,Gemfan 5040 R,5.0,4.0,3.0,ABS,,166.8,,13881.6,0.0243765,4.97777,0.232089,0.928354,,,,,
602,300,7.4,2S1P,25,13.5,51.5,19.0,20.0,20.0,TMOTOR P2207 V2.0,4.0,28.1,31.0,,1950,33.7,,0.0565,22.0,6045 plastic,6.0,4.5,6.0,Plastic,,178.8,,13166.7,0.0561514,11.4663,0.425023,1.70009,4749.42,0.0085136,1.73851,0.342409,2.58843
603,300,7.4,2S1P,25,13.5,51.5,19.0,20.0,20.0,TMOTOR P2207 V2.0,4.0,28.1,31.0,,1950,33.7,,0.0565,22.0,Gemfan Hurricane 51499,5.1,4.99,5.2,Poly Carbonate,,175.6,,13448.3,0.043634,8.91022,0.329434,1.31773,,,,,
604,300,7.4,2S1P,25,13.5,51.5,19.0,20.0,20.0,TMOTOR P2207 V2.0,4.0,28.1,31.0,,1950,33.7,,0.0565,22.0,Carbon Fiber 5030,5.0,3.0,2.18,Carbon Fiber,,163.52,,14159.9,0.0120042,2.45129,0.152041,0.608166,,,,,
605,300,7.4,2S1P,25,13.5,51.5,19.0,20.0,20.0,TMOTOR P2207 V2.0,4.0,28.1,31.0,,1950,33.7,,0.0565,22.0,DALPROP 6040,6.0,4.0,4.32,Nylon,,172.08,,13460.1,0.0431105,8.80331,0.366912,1.46765,5250.18,0.00755382,1.54252,0.375615,2.91731
606,300,7.4,2S1P,25,13.5,51.5,19.0,20.0,20.0,TMOTOR P2207 V2.0,4.0,28.1,31.0,,1950,33.7,,0.0565,22.0,Gemfan 6030 Thick hub,6.0,3.0,5.23,Plastic,,175.72,,13938.8,0.0218309,4.45795,0.247284,0.989137,,,,,
607,300,7.4,2S1P,25,13.5,51.5,19.0,20.0,20.0,TMOTOR P2207 V2.0,4.0,28.1,31.0,,1950,33.7,,0.0565,22.0,Gemfan 5050 3-Blades BN,5.0,5.0,5.0,Poly Carbonate,,174.8,,13501.4,0.0412725,8.42799,0.314804,1.25922,5713.35,0.00840824,1.71699,0.409045,2.62086
608,300,7.4,2S1P,25,13.5,51.5,19.0,20.0,20.0,TMOTOR P2207 V2.0,4.0,28.1,31.0,,1950,33.7,,0.0565,22.0,KingKong 6040,6.0,4.0,3.38,Plastic,,168.32,,13460.1,0.0431105,8.80331,0.366912,1.46765,5250.18,0.00755382,1.54252,0.375615,2.91731
609,300,7.4,2S1P,25,13.5,51.5,19.0,20.0,20.0,TMOTOR P2207 V2.0,4.0,28.1,31.0,,1950,33.7,,0.0565,22.0,Quanum Carbon Fiber Propeller 6045 Self-Locking,6.0,4.5,6.78,Carbon Fiber,,181.92,,13166.7,0.0561514,11.4663,0.425023,1.70009,4749.42,0.0085136,1.73851,0.342409,2.58843
610,300,7.4,2S1P,25,13.5,51.5,19.0,20.0,20.0,TMOTOR P2207 V2.0,4.0,28.1,31.0,,1950,33.7,,0.0565,22.0,T-Motor 5143 Ultra-Light,5.1,4.3,3.7,Poly Carbonate,,169.6,,13735.7,0.0308614,6.302,0.270159,1.08064,,,,,
612,300,7.4,2S1P,25,13.5,51.5,19.0,20.0,20.0,TMOTOR P2207 V2.0,4.0,28.1,31.0,,2550,33.7,,0.042,22.0,6030 Carbon Nylon,6.0,3.0,2.22,Carbon Nylon,1.5,163.68,114.0,17880.3,0.0346055,9.2409,0.394925,1.5797,6706.65,0.0056401,1.50611,0.363961,2.98783
613,300,7.4,2S1P,25,13.5,51.5,19.0,20.0,20.0,TMOTOR P2207 V2.0,4.0,28.1,31.0,,2550,33.7,,0.042,22.0,Gemfan 5040 R,5.0,4.0,3.0,ABS,,166.8,,17769.2,0.0384898,10.2781,0.369186,1.47674,,,,,
614,300,7.4,2S1P,25,13.5,51.5,19.0,20.0,20.0,TMOTOR P2207 V2.0,4.0,28.1,31.0,,2550,33.7,,0.042,22.0,6045 plastic,6.0,4.5,6.0,Plastic,,178.8,,16446.6,0.0847362,22.6276,0.645682,2.58273,4749.42,0.0085136,2.27343,0.264595,1.97939
615,300,7.4,2S1P,25,13.5,51.5,19.0,20.0,20.0,TMOTOR P2207 V2.0,4.0,28.1,31.0,,2550,33.7,,0.042,22.0,Gemfan Hurricane 51499,5.1,4.99,5.2,Poly Carbonate,,175.6,,16954.3,0.0669822,17.8866,0.509238,2.03695,5555.01,0.00850074,2.27,0.307267,1.98238
616,300,7.4,2S1P,25,13.5,51.5,19.0,20.0,20.0,TMOTOR P2207 V2.0,4.0,28.1,31.0,,2550,33.7,,0.042,22.0,Carbon Fiber 5030,5.0,3.0,2.18,Carbon Fiber,,163.52,,18317.3,0.0193268,5.16095,0.246686,0.986745,,,,,
617,300,7.4,2S1P,25,13.5,51.5,19.0,20.0,20.0,TMOTOR P2207 V2.0,4.0,28.1,31.0,,2550,33.7,,0.042,22.0,DALPROP 6040,6.0,4.0,4.32,Nylon,,172.08,,16975.9,0.0662271,17.685,0.567596,2.27038,5250.18,0.00755382,2.01714,0.289678,2.23089
618,300,7.4,2S1P,25,13.5,51.5,19.0,20.0,20.0,TMOTOR P2207 V2.0,4.0,28.1,31.0,,2550,33.7,,0.042,22.0,Gemfan 6030 Thick hub,6.0,3.0,5.23,Plastic,,175.72,,17880.3,0.0346055,9.2409,0.394925,1.5797,6706.65,0.0056401,1.50611,0.363961,2.98783
619,300,7.4,2S1P,25,13.5,51.5,19.0,20.0,20.0,TMOTOR P2207 V2.0,4.0,28.1,31.0,,2550,33.7,,0.042,22.0,Gemfan 5050 3-Blades BN,5.0,5.0,5.0,Poly Carbonate,,174.8,,17052,0.0635683,16.975,0.488272,1.95309,,,,,
620,300,7.4,2S1P,25,13.5,51.5,19.0,20.0,20.0,TMOTOR P2207 V2.0,4.0,28.1,31.0,,2550,33.7,,0.042,22.0,KingKong 6040,6.0,4.0,3.38,Plastic,,168.32,,16975.9,0.0662271,17.685,0.567596,2.27038,5250.18,0.00755382,2.01714,0.289678,2.23089
621,300,7.4,2S1P,25,13.5,51.5,19.0,20.0,20.0,TMOTOR P2207 V2.0,4.0,28.1,31.0,,2550,33.7,,0.042,22.0,Quanum Carbon Fiber Propeller 6045 Self-Locking,6.0,4.5,6.78,Carbon Fiber,,181.92,,16446.6,0.0847362,22.6276,0.645682,2.58273,4749.42,0.0085136,2.27343,0.264595,1.97939
622,300,7.4,2S1P,25,13.5,51.5,19.0,20.0,20.0,TMOTOR P2207 V2.0,4.0,28.1,31.0,,2550,33.7,,0.042,22.0,T-Motor 5143 Ultra-Light,5.1,4.3,3.7,Poly Carbonate,,169.6,,17489.9,0.0482558,12.886,0.425502,1.70201,,,,,
624,300,7.4,2S1P,25,13.5,51.5,19.0,20.0,20.0,TMOTOR P2505,4.0,30.4,28.8,,1850,31.25,,0.069,25.0,6030 Carbon Nylon,6.0,3.0,2.22,Carbon Nylon,1.5,153.88,126.0,13201.8,0.0197433,3.82491,0.223274,0.893094,,,,,
625,300,7.4,2S1P,25,13.5,51.5,19.0,20.0,20.0,TMOTOR P2505,4.0,30.4,28.8,,1850,31.25,,0.069,25.0,Gemfan 5040 R,5.0,4.0,3.0,ABS,,157.0,,13145,0.0220378,4.26941,0.209479,0.837914,6908.24,0.00670332,1.29864,0.516729,3.46515
626,300,7.4,2S1P,25,13.5,51.5,19.0,20.0,20.0,TMOTOR P2505,4.0,30.4,28.8,,1850,31.25,,0.069,25.0,6045 plastic,6.0,4.5,6.0,Plastic,,169.0,,12439.9,0.0505519,9.79349,0.381987,1.52795,4749.42,0.0085136,1.64935,0.362305,2.72834
627,300,7.4,2S1P,25,13.5,51.5,19.0,20.0,20.0,TMOTOR P2505,4.0,30.4,28.8,,1850,31.25,,0.069,25.0,Gemfan Hurricane 51499,5.1,4.99,5.2,Poly Carbonate,,165.8,,12717,0.039346,7.62255,0.296561,1.18624,5555.01,0.00850074,1.64686,0.421127,2.73247
629,300,7.4,2S1P,25,13.5,51.5,19.0,20.0,20.0,TMOTOR P2505,4.0,30.4,28.8,,1850,31.25,,0.069,25.0,DALPROP 6040,6.0,4.0,4.32,Nylon,,162.28,,12728.6,0.0388765,7.5316,0.330323,1.32129,5250.18,0.00755382,1.46341,0.39715,3.075
630,300,7.4,2S1P,25,13.5,51.5,19.0,20.0,20.0,TMOTOR P2505,4.0,30.4,28.8,,1850,31.25,,0.069,25.0,Gemfan 6030 Thick hub,6.0,3.0,5.23,Plastic,,165.92,,13201.8,0.0197433,3.82491,0.223274,0.893094,,,,,
631,300,7.4,2S1P,25,13.5,51.5,19.0,20.0,20.0,TMOTOR P2505,4.0,30.4,28.8,,1850,31.25,,0.069,25.0,Gemfan 5050 3-Blades BN,5.0,5.0,5.0,Poly Carbonate,,165.0,,12769.4,0.037228,7.21224,0.28348,1.13392,5713.35,0.00840824,1.62894,0.432526,2.76253
632,300,7.4,2S1P,25,13.5,51.5,19.0,20.0,20.0,TMOTOR P2505,4.0,30.4,28.8,,1850,31.25,,0.069,25.0,KingKong 6040,6.0,4.0,3.38,Plastic,,158.52,,12728.6,0.0388765,7.5316,0.330323,1.32129,5250.18,0.00755382,1.46341,0.39715,3.075
633,300,7.4,2S1P,25,13.5,51.5,19.0,20.0,20.0,TMOTOR P2505,4.0,30.4,28.8,,1850,31.25,,0.069,25.0,Quanum Carbon Fiber Propeller 6045 Self-Locking,6.0,4.5,6.78,Carbon Fiber,,172.12,,12439.9,0.0505519,9.79349,0.381987,1.52795,4749.42,0.0085136,1.64935,0.362305,2.72834
634,300,7.4,2S1P,25,13.5,51.5,19.0,20.0,20.0,TMOTOR P2505,4.0,30.4,28.8,,1850,31.25,,0.069,25.0,T-Motor 5143 Ultra-Light,5.1,4.3,3.7,Poly Carbonate,,159.8,,13000.6,0.0278758,5.40042,0.243621,0.974484,6305.09,0.00730837,1.41586,0.473763,3.17827
636,300,7.4,2S1P,25,13.5,51.5,19.0,20.0,20.0,TMOTOR F1203,2.0,15.5,14.05,,7000,4.45,,0.198,15.0,6030 Carbon Nylon,6.0,3.0,2.22,Carbon Nylon,1.5,46.68,86.0,17611.8,0.0336501,24.6668,0.383848,1.53539,6706.65,0.0056401,4.13441,0.240095,1.08843
637,300,7.4,2S1P,25,13.5,51.5,19.0,20.0,20.0,TMOTOR F1203,2.0,15.5,14.05,,7000,4.45,,0.198,15.0,Gemfan 5040 R,5.0,4.0,3.0,ABS,,49.8,,16748.5,0.0344998,25.2897,0.330327,1.32131,6908.24,0.00670342,4.91394,0.264845,0.915763
[...]
68759,3500,7.4,2S1P,60,18.8,92.8,46.5,149.0,30.0,iFlight XING X1404 ,2.0,18.3,12.5,,4600,8.5,,0.28,17.0,Gemfan 3052 - Flash,3.0,5.2,1.6,Poly Carbonate,,189.4,,21986.6,0.019427,9.35822,0.197517,0.790067,11922,0.00626119,3.01608,0.464356,17.4067
68808,3500,7.4,2S1P,60,18.8,92.8,46.5,149.0,30.0,EMAX ECO Micro Series 1404,1.5,18.8,19.75,9N12P,3700,8.6,0.5,0.265,13.0,6030 Carbon Nylon,6.0,3.0,2.22,Carbon Nylon,1.5,192.28,88.0,16300.7,0.0291631,11.2996,0.331893,1.32757,,,,,
68809,3500,7.4,2S1P,60,18.8,92.8,46.5,149.0,30.0,EMAX ECO Micro Series 1404,1.5,18.8,19.75,9N12P,3700,8.6,0.5,0.265,13.0,Gemfan 5040 R,5.0,4.0,3.0,ABS,,195.4,,15721.4,0.030688,11.8905,0.293273,1.17309,6908.24,0.00670332,2.59729,0.345321,20.2134
68810,3500,7.4,2S1P,60,18.8,92.8,46.5,149.0,30.0,EMAX ECO Micro Series 1404,1.5,18.8,19.75,9N12P,3700,8.6,0.5,0.265,13.0,6045 plastic,6.0,4.5,6.0,Plastic,,207.4,,11300.9,0.0423238,16.3989,0.318893,1.27557,4749.42,0.0085136,3.29871,0.291592,15.9153
68811,3500,7.4,2S1P,60,18.8,92.8,46.5,149.0,30.0,EMAX ECO Micro Series 1404,1.5,18.8,19.75,9N12P,3700,8.6,0.5,0.265,13.0,Gemfan Hurricane 51499,5.1,4.99,5.2,Poly Carbonate,,204.2,,12627.1,0.0388329,15.0463,0.292632,1.17053,5555.01,0.00850074,3.29372,0.320837,15.9394
68812,3500,7.4,2S1P,60,18.8,92.8,46.5,149.0,30.0,EMAX ECO Micro Series 1404,1.5,18.8,19.75,9N12P,3700,8.6,0.5,0.265,13.0,Carbon Fiber 5030,5.0,3.0,2.18,Carbon Fiber,,192.12,,19295.6,0.0212798,8.24515,0.272038,1.08815,8824.67,0.00500505,1.93926,0.39175,27.0722
68813,3500,7.4,2S1P,60,18.8,92.8,46.5,149.0,30.0,EMAX ECO Micro Series 1404,1.5,18.8,19.75,9N12P,3700,8.6,0.5,0.265,13.0,DALPROP 6040,6.0,4.0,4.32,Nylon,,200.68,,12691,0.0386646,14.9811,0.328493,1.31397,5250.18,0.00755382,2.92682,0.296564,17.9375
68814,3500,7.4,2S1P,60,18.8,92.8,46.5,149.0,30.0,EMAX ECO Micro Series 1404,1.5,18.8,19.75,9N12P,3700,8.6,0.5,0.265,13.0,Gemfan 6030 Thick hub,6.0,3.0,5.23,Plastic,,204.32,,16300.7,0.0291631,11.2996,0.331893,1.32757,,,,,
68815,3500,7.4,2S1P,60,18.8,92.8,46.5,149.0,30.0,EMAX ECO Micro Series 1404,1.5,18.8,19.75,9N12P,3700,8.6,0.5,0.265,13.0,Gemfan 5050 3-Blades BN,5.0,5.0,5.0,Poly Carbonate,,203.4,,12922.1,0.0380562,14.7454,0.289891,1.15956,5713.35,0.00840824,3.25788,0.325336,16.1148
68816,3500,7.4,2S1P,60,18.8,92.8,46.5,149.0,30.0,EMAX ECO Micro Series 1404,1.5,18.8,19.75,9N12P,3700,8.6,0.5,0.265,13.0,KingKong 6040,6.0,4.0,3.38,Plastic,,196.92,,12691,0.0386646,14.9811,0.328493,1.31397,5250.18,0.00755382,2.92682,0.296564,17.9375
68818,3500,7.4,2S1P,60,18.8,92.8,46.5,149.0,30.0,EMAX ECO Micro Series 1404,1.5,18.8,19.75,9N12P,3700,8.6,0.5,0.265,13.0,T-Motor 5143 Ultra-Light,5.1,4.3,3.7,Poly Carbonate,,198.2,,14469.9,0.0339823,13.1669,0.297944,1.19178,6305.09,0.00730837,2.83172,0.331687,18.54
68819,3500,7.4,2S1P,60,18.8,92.8,46.5,149.0,30.0,EMAX ECO Micro Series 1404,1.5,18.8,19.75,9N12P,3700,8.6,0.5,0.265,13.0,Gemfan 3052 - Flash,3.0,5.2,1.6,Poly Carbonate,,189.8,,20749.4,0.0174532,6.76246,0.17714,0.708561,11922,0.00626119,2.42598,0.522302,21.6407
68820,3500,7.4,2S1P,60,18.8,92.8,46.5,149.0,30.0,EMAX ECO Micro Series 1404,1.5,18.8,19.75,9N12P,6000,8.6,1.0,0.12,13.0,6030 Carbon Nylon,6.0,3.0,2.22,Carbon Nylon,1.5,192.28,88.0,21803.6,0.0499491,31.384,0.573431,2.29372,6706.65,0.0056401,3.54378,0.208517,14.8147
68821,3500,7.4,2S1P,60,18.8,92.8,46.5,149.0,30.0,EMAX ECO Micro Series 1404,1.5,18.8,19.75,9N12P,6000,8.6,1.0,0.12,13.0,Gemfan 5040 R,5.0,4.0,3.0,ABS,,195.4,,20896.9,0.0519532,32.6432,0.500753,2.00301,6908.24,0.00670332,4.21182,0.223891,12.4649
68822,3500,7.4,2S1P,60,18.8,92.8,46.5,149.0,30.0,EMAX ECO Micro Series 1404,1.5,18.8,19.75,9N12P,6000,8.6,1.0,0.12,13.0,6045 plastic,6.0,4.5,6.0,Plastic,,207.4,,14404.4,0.0663048,41.6605,0.503231,2.01292,4749.42,0.0085136,5.34926,0.193714,9.81445
68823,3500,7.4,2S1P,60,18.8,92.8,46.5,149.0,30.0,EMAX ECO Micro Series 1404,1.5,18.8,19.75,9N12P,6000,8.6,1.0,0.12,13.0,Gemfan Hurricane 51499,5.1,4.99,5.2,Poly Carbonate,,204.2,,16282.4,0.0621536,39.0523,0.471955,1.88782,5555.01,0.00850073,5.34116,0.211726,9.82932
68824,3500,7.4,2S1P,60,18.8,92.8,46.5,149.0,30.0,EMAX ECO Micro Series 1404,1.5,18.8,19.75,9N12P,6000,8.6,1.0,0.12,13.0,Carbon Fiber 5030,5.0,3.0,2.18,Carbon Fiber,,192.12,,26764.9,0.0389821,24.4932,0.503258,2.01303,,,,,
68825,3500,7.4,2S1P,60,18.8,92.8,46.5,149.0,30.0,EMAX ECO Micro Series 1404,1.5,18.8,19.75,9N12P,6000,8.6,1.0,0.12,13.0,DALPROP 6040,6.0,4.0,4.32,Nylon,,200.68,,16374.3,0.0619504,38.9246,0.530368,2.12147,5250.18,0.00755382,4.7462,0.195213,11.0615
68826,3500,7.4,2S1P,60,18.8,92.8,46.5,149.0,30.0,EMAX ECO Micro Series 1404,1.5,18.8,19.75,9N12P,6000,8.6,1.0,0.12,13.0,Gemfan 6030 Thick hub,6.0,3.0,5.23,Plastic,,204.32,,21803.6,0.0499491,31.384,0.573431,2.29372,6706.65,0.0056401,3.54378,0.208517,14.8147
68827,3500,7.4,2S1P,60,18.8,92.8,46.5,149.0,30.0,EMAX ECO Micro Series 1404,1.5,18.8,19.75,9N12P,6000,8.6,1.0,0.12,13.0,Gemfan 5050 3-Blades BN,5.0,5.0,5.0,Poly Carbonate,,203.4,,16707.6,0.0612136,38.4617,0.469898,1.87959,5713.35,0.00840824,5.28305,0.21435,9.93743
68828,3500,7.4,2S1P,60,18.8,92.8,46.5,149.0,30.0,EMAX ECO Micro Series 1404,1.5,18.8,19.75,9N12P,6000,8.6,1.0,0.12,13.0,KingKong 6040,6.0,4.0,3.38,Plastic,,196.92,,16374.3,0.0619504,38.9246,0.530368,2.12147,5250.18,0.00755382,4.7462,0.195213,11.0615
68830,3500,7.4,2S1P,60,18.8,92.8,46.5,149.0,30.0,EMAX ECO Micro Series 1404,1.5,18.8,19.75,9N12P,6000,8.6,1.0,0.12,13.0,T-Motor 5143 Ultra-Light,5.1,4.3,3.7,Poly Carbonate,,198.2,,18987.1,0.0561748,35.2957,0.496551,1.9862,6305.09,0.00730837,4.59199,0.216471,11.433
68831,3500,7.4,2S1P,60,18.8,92.8,46.5,149.0,30.0,EMAX ECO Micro Series 1404,1.5,18.8,19.75,9N12P,6000,8.6,1.0,0.12,13.0,Gemfan 3052 - Flash,3.0,5.2,1.6,Poly Carbonate,,189.8,,29377.3,0.0332075,20.8649,0.340572,1.36229,11922,0.00626119,3.93402,0.332308,13.3451
68832,3500,7.4,2S1P,60,18.8,92.8,46.5,149.0,30.0,EMAX ECO Micro Series 1106,2.0,14.2,19.9,9N12P,4500,6.7,0.6,0.3,13.0,6030 Carbon Nylon,6.0,3.0,2.22,Carbon Nylon,1.5,184.68,88.0,15796,0.0275146,12.9659,0.312836,1.25135,6706.65,0.0056401,2.65784,0.309151,19.7529
68833,3500,7.4,2S1P,60,18.8,92.8,46.5,149.0,30.0,EMAX ECO Micro Series 1106,2.0,14.2,19.9,9N12P,4500,6.7,0.6,0.3,13.0,Gemfan 5040 R,5.0,4.0,3.0,ABS,,187.8,,15125,0.0285692,13.4629,0.272708,1.09083,6908.24,0.00670332,3.15887,0.335517,16.6199
68834,3500,7.4,2S1P,60,18.8,92.8,46.5,149.0,30.0,EMAX ECO Micro Series 1106,2.0,14.2,19.9,9N12P,4500,6.7,0.6,0.3,13.0,6045 plastic,6.0,4.5,6.0,Plastic,,199.8,,10362.8,0.0360549,16.9905,0.270955,1.08382,4749.42,0.0085136,4.01194,0.305271,13.0859
68835,3500,7.4,2S1P,60,18.8,92.8,46.5,149.0,30.0,EMAX ECO Micro Series 1106,2.0,14.2,19.9,9N12P,4500,6.7,0.6,0.3,13.0,Gemfan Hurricane 51499,5.1,4.99,5.2,Poly Carbonate,,196.6,,11733.2,0.0339009,15.9754,0.254904,1.01961,5555.01,0.00850074,4.00588,0.329218,13.1057
68836,3500,7.4,2S1P,60,18.8,92.8,46.5,149.0,30.0,EMAX ECO Micro Series 1106,2.0,14.2,19.9,9N12P,4500,6.7,0.6,0.3,13.0,Carbon Fiber 5030,5.0,3.0,2.18,Carbon Fiber,,184.52,,19498.2,0.021695,10.2235,0.277433,1.10973,8824.67,0.00500499,2.3585,0.36062,22.2599
68837,3500,7.4,2S1P,60,18.8,92.8,46.5,149.0,30.0,EMAX ECO Micro Series 1106,2.0,14.2,19.9,9N12P,4500,6.7,0.6,0.3,13.0,DALPROP 6040,6.0,4.0,4.32,Nylon,,193.08,,11800.4,0.0337952,15.9256,0.286497,1.14599,5250.18,0.00755368,3.55953,0.301968,14.7492
68838,3500,7.4,2S1P,60,18.8,92.8,46.5,149.0,30.0,EMAX ECO Micro Series 1106,2.0,14.2,19.9,9N12P,4500,6.7,0.6,0.3,13.0,Gemfan 6030 Thick hub,6.0,3.0,5.23,Plastic,,196.72,,15796,0.0275146,12.9659,0.312836,1.25135,6706.65,0.0056401,2.65784,0.309151,19.7529
68839,3500,7.4,2S1P,60,18.8,92.8,46.5,149.0,30.0,EMAX ECO Micro Series 1106,2.0,14.2,19.9,9N12P,4500,6.7,0.6,0.3,13.0,Gemfan 5050 3-Blades BN,5.0,5.0,5.0,Poly Carbonate,,195.8,,12044.3,0.0334119,15.745,0.253976,1.0159,5713.35,0.00840824,3.96229,0.332206,13.2499
68840,3500,7.4,2S1P,60,18.8,92.8,46.5,149.0,30.0,EMAX ECO Micro Series 1106,2.0,14.2,19.9,9N12P,4500,6.7,0.6,0.3,13.0,KingKong 6040,6.0,4.0,3.38,Plastic,,189.32,,11800.4,0.0337952,15.9256,0.286497,1.14599,5250.18,0.00755368,3.55953,0.301968,14.7492
68841,3500,7.4,2S1P,60,18.8,92.8,46.5,149.0,30.0,EMAX ECO Micro Series 1106,2.0,14.2,19.9,9N12P,4500,6.7,0.6,0.3,13.0,Quanum Carbon Fiber Propeller 6045 Self-Locking,6.0,4.5,6.78,Carbon Fiber,,202.92,,10362.8,0.0360549,16.9905,0.270955,1.08382,4749.42,0.0085136,4.01194,0.305271,13.0859
68842,3500,7.4,2S1P,60,18.8,92.8,46.5,149.0,30.0,EMAX ECO Micro Series 1106,2.0,14.2,19.9,9N12P,4500,6.7,0.6,0.3,13.0,T-Motor 5143 Ultra-Light,5.1,4.3,3.7,Poly Carbonate,,190.6,,13716.8,0.0307829,14.5061,0.269461,1.07784,6305.09,0.00730837,3.44399,0.328963,15.2439
68843,3500,7.4,2S1P,60,18.8,92.8,46.5,149.0,30.0,EMAX ECO Micro Series 1106,2.0,14.2,19.9,9N12P,4500,6.7,0.6,0.3,13.0,Gemfan 3052 - Flash,3.0,5.2,1.6,Poly Carbonate,,182.2,,21471.4,0.0185933,8.76189,0.188906,0.755624,,,,,
68844,3500,7.4,2S1P,60,18.8,92.8,46.5,149.0,30.0,EMAX ECO Micro Series 1106,2.0,14.2,19.9,9N12P,6000,6.7,1.2,0.19,13.0,6030 Carbon Nylon,6.0,3.0,2.22,Carbon Nylon,1.5,184.68,88.0,18362.3,0.0363511,22.8401,0.415177,1.66071,6706.65,0.0056401,3.54378,0.24204,14.8147
68845,3500,7.4,2S1P,60,18.8,92.8,46.5,149.0,30.0,EMAX ECO Micro Series 1106,2.0,14.2,19.9,9N12P,6000,6.7,1.2,0.19,13.0,Gemfan 5040 R,5.0,4.0,3.0,ABS,,187.8,,17525.6,0.0375193,23.574,0.359727,1.43891,6908.22,0.00670141,4.20945,0.263671,12.4719
68846,3500,7.4,2S1P,60,18.8,92.8,46.5,149.0,30.0,EMAX ECO Micro Series 1106,2.0,14.2,19.9,9N12P,6000,6.7,1.2,0.19,13.0,6045 plastic,6.0,4.5,6.0,Plastic,,199.8,,11761,0.0455671,28.6307,0.343742,1.37497,4749.42,0.0085136,5.34925,0.244315,9.81445
68847,3500,7.4,2S1P,60,18.8,92.8,46.5,149.0,30.0,EMAX ECO Micro Series 1106,2.0,14.2,19.9,9N12P,6000,6.7,1.2,0.19,13.0,Gemfan Hurricane 51499,5.1,4.99,5.2,Poly Carbonate,,196.6,,13391.1,0.0432914,27.2008,0.326805,1.30722,5555.01,0.00850074,5.34117,0.262251,9.8293
68848,3500,7.4,2S1P,60,18.8,92.8,46.5,149.0,30.0,EMAX ECO Micro Series 1106,2.0,14.2,19.9,9N12P,6000,6.7,1.2,0.19,13.0,Carbon Fiber 5030,5.0,3.0,2.18,Carbon Fiber,,184.52,,23113.5,0.029718,18.6724,0.381974,1.5279,8824.67,0.00500508,3.14478,0.279498,16.6943
68849,3500,7.4,2S1P,60,18.8,92.8,46.5,149.0,30.0,EMAX ECO Micro Series 1106,2.0,14.2,19.9,9N12P,6000,6.7,1.2,0.19,13.0,DALPROP 6040,6.0,4.0,4.32,Nylon,,193.08,,13471.7,0.0431789,27.1301,0.367505,1.47002,5250.18,0.00755382,4.7462,0.240109,11.0615
68850,3500,7.4,2S1P,60,18.8,92.8,46.5,149.0,30.0,EMAX ECO Micro Series 1106,2.0,14.2,19.9,9N12P,6000,6.7,1.2,0.19,13.0,Gemfan 6030 Thick hub,6.0,3.0,5.23,Plastic,,196.72,,18362.3,0.0363511,22.8401,0.415177,1.66071,6706.65,0.0056401,3.54378,0.24204,14.8147
68851,3500,7.4,2S1P,60,18.8,92.8,46.5,149.0,30.0,EMAX ECO Micro Series 1106,2.0,14.2,19.9,9N12P,6000,6.7,1.2,0.19,13.0,Gemfan 5050 3-Blades BN,5.0,5.0,5.0,Poly Carbonate,,195.8,,13764.2,0.0427706,26.8735,0.326419,1.30568,5713.35,0.00840824,5.28305,0.264325,9.93743
68852,3500,7.4,2S1P,60,18.8,92.8,46.5,149.0,30.0,EMAX ECO Micro Series 1106,2.0,14.2,19.9,9N12P,6000,6.7,1.2,0.19,13.0,KingKong 6040,6.0,4.0,3.38,Plastic,,189.32,,13471.7,0.0431789,27.1301,0.367505,1.47002,5250.18,0.00755382,4.7462,0.240109,11.0615
68853,3500,7.4,2S1P,60,18.8,92.8,46.5,149.0,30.0,EMAX ECO Micro Series 1106,2.0,14.2,19.9,9N12P,6000,6.7,1.2,0.19,13.0,Quanum Carbon Fiber Propeller 6045 Self-Locking,6.0,4.5,6.78,Carbon Fiber,,202.92,,11761,0.0455671,28.6307,0.343742,1.37497,4749.42,0.0085136,5.34925,0.244315,9.81445
68854,3500,7.4,2S1P,60,18.8,92.8,46.5,149.0,30.0,EMAX ECO Micro Series 1106,2.0,14.2,19.9,9N12P,6000,6.7,1.2,0.19,13.0,T-Motor 5143 Ultra-Light,5.1,4.3,3.7,Poly Carbonate,,190.6,,15790.5,0.0399416,25.096,0.351112,1.40445,6305.09,0.00730837,4.59199,0.259909,11.433
68855,3500,7.4,2S1P,60,18.8,92.8,46.5,149.0,30.0,EMAX ECO Micro Series 1106,2.0,14.2,19.9,9N12P,6000,6.7,1.2,0.19,13.0,Gemfan 3052 - Flash,3.0,5.2,1.6,Poly Carbonate,,182.2,,25754.5,0.026031,16.3557,0.265919,1.06367,11922,0.00626119,3.93402,0.369521,13.3451
115764,7000,3.7,1S2P,50,19.0,93.0,47.0,147.0,,TMOTOR F1203,2.0,15.5,14.05,,7000,4.45,,0.198,15.0,6030 Carbon Nylon,6.0,3.0,2.22,Carbon Nylon,1.5,173.68,,11171.6,0.0144966,10.6266,0.16312,0.652479,6706.65,0.0056401,4.1344,0.48019,25.3967
115770,7000,3.7,1S2P,50,19.0,93.0,47.0,147.0,,TMOTOR F1203,2.0,15.5,14.05,,7000,4.45,,0.198,15.0,Gemfan 6030 Thick hub,6.0,3.0,5.23,Plastic,,185.72,,11171.6,0.0144966,10.6266,0.16312,0.652479,6706.65,0.0056401,4.1344,0.48019,25.3967
115860,7000,3.7,1S2P,50,19.0,93.0,47.0,147.0,,TMOTOR F1103,1.5,14.4,14.0,,8000,5.3,,0.163,12.0,6030 Carbon Nylon,6.0,3.0,2.22,Carbon Nylon,1.5,177.08,,11873.5,0.0162265,13.5939,0.18292,0.73168,6706.65,0.00564006,4.72496,0.43473,22.2224
115861,7000,3.7,1S2P,50,19.0,93.0,47.0,147.0,,TMOTOR F1103,1.5,14.4,14.0,,8000,5.3,,0.163,12.0,Gemfan 5040 R,5.0,4.0,3.0,ABS,,180.2,,11325.3,0.0167284,14.0143,0.158301,0.633205,6908.22,0.00670081,5.61159,0.480599,18.7113
115862,7000,3.7,1S2P,50,19.0,93.0,47.0,147.0,,TMOTOR F1103,1.5,14.4,14.0,,8000,5.3,,0.163,12.0,6045 plastic,6.0,4.5,6.0,Plastic,,192.2,,7569.7,0.0201662,16.8944,0.150129,0.600515,4749.42,0.0085136,7.13234,0.474662,14.7217
115864,7000,3.7,1S2P,50,19.0,93.0,47.0,147.0,,TMOTOR F1103,1.5,14.4,14.0,,8000,5.3,,0.163,12.0,Carbon Fiber 5030,5.0,3.0,2.18,Carbon Fiber,,176.92,,15003.8,0.0133611,11.1934,0.169522,0.67809,8824.67,0.00500506,4.19301,0.48285,25.0417
115865,7000,3.7,1S2P,50,19.0,93.0,47.0,147.0,,TMOTOR F1103,1.5,14.4,14.0,,8000,5.3,,0.163,12.0,DALPROP 6040,6.0,4.0,4.32,Nylon,,185.48,,8680.53,0.0191494,16.0425,0.160849,0.643397,5250.18,0.00755382,6.32827,0.456157,16.5922
115866,7000,3.7,1S2P,50,19.0,93.0,47.0,147.0,,TMOTOR F1103,1.5,14.4,14.0,,8000,5.3,,0.163,12.0,Gemfan 6030 Thick hub,6.0,3.0,5.23,Plastic,,189.12,,11873.5,0.0162265,13.5939,0.18292,0.73168,6706.65,0.00564006,4.72496,0.43473,22.2224
115868,7000,3.7,1S2P,50,19.0,93.0,47.0,147.0,,TMOTOR F1103,1.5,14.4,14.0,,8000,5.3,,0.163,12.0,KingKong 6040,6.0,4.0,3.38,Plastic,,181.72,,8680.53,0.0191494,16.0425,0.160849,0.643397,5250.18,0.00755382,6.32827,0.456157,16.5922
115869,7000,3.7,1S2P,50,19.0,93.0,47.0,147.0,,TMOTOR F1103,1.5,14.4,14.0,,8000,5.3,,0.163,12.0,Quanum Carbon Fiber Propeller 6045 Self-Locking,6.0,4.5,6.78,Carbon Fiber,,195.32,,7569.7,0.0201662,16.8944,0.150129,0.600515,4749.42,0.0085136,7.13234,0.474662,14.7217
115870,7000,3.7,1S2P,50,19.0,93.0,47.0,147.0,,TMOTOR F1103,1.5,14.4,14.0,,8000,5.3,,0.163,12.0,T-Motor 5143 Ultra-Light,5.1,4.3,3.7,Poly Carbonate,,183.0,,10191.1,0.0177666,14.8841,0.154141,0.616565,6305.09,0.00730837,6.12265,0.482737,17.1494
115872,7000,3.7,1S2P,50,19.0,93.0,47.0,147.0,,TMOTOR F15,1.5,14.4,13.3,,4500,7.8,,0.197,14.0,6030 Carbon Nylon,6.0,3.0,2.22,Carbon Nylon,1.5,187.08,,10881.6,0.0138081,6.50692,0.155251,0.621002,6706.65,0.0056401,2.65784,0.544313,39.5058
115874,7000,3.7,1S2P,50,19.0,93.0,47.0,147.0,,TMOTOR F15,1.5,14.4,13.3,,4500,7.8,,0.197,14.0,6045 plastic,6.0,4.5,6.0,Plastic,,202.2,,7782.38,0.0212269,10.003,0.158157,0.632627,,,,,
115877,7000,3.7,1S2P,50,19.0,93.0,47.0,147.0,,TMOTOR F15,1.5,14.4,13.3,,4500,7.8,,0.197,14.0,DALPROP 6040,6.0,4.0,4.32,Nylon,,195.48,,8669.39,0.0191038,9.00238,0.160461,0.641845,5250.18,0.00755382,3.55965,0.504854,29.4973
115878,7000,3.7,1S2P,50,19.0,93.0,47.0,147.0,,TMOTOR F15,1.5,14.4,13.3,,4500,7.8,,0.197,14.0,Gemfan 6030 Thick hub,6.0,3.0,5.23,Plastic,,199.12,,10881.6,0.0138081,6.50692,0.155251,0.621002,6706.65,0.0056401,2.65784,0.544313,39.5058
115880,7000,3.7,1S2P,50,19.0,93.0,47.0,147.0,,TMOTOR F15,1.5,14.4,13.3,,4500,7.8,,0.197,14.0,KingKong 6040,6.0,4.0,3.38,Plastic,,191.72,,8669.39,0.0191038,9.00238,0.160461,0.641845,5250.18,0.00755382,3.55965,0.504854,29.4973
115881,7000,3.7,1S2P,50,19.0,93.0,47.0,147.0,,TMOTOR F15,1.5,14.4,13.3,,4500,7.8,,0.197,14.0,Quanum Carbon Fiber Propeller 6045 Self-Locking,6.0,4.5,6.78,Carbon Fiber,,205.32,,7782.38,0.0212269,10.003,0.158157,0.632627,,,,,
116052,7000,3.7,1S2P,50,19.0,93.0,47.0,147.0,,EMAX ECO Micro Series 1404,1.5,18.8,19.75,9N12P,6000,8.6,1.0,0.12,13.0,6030 Carbon Nylon,6.0,3.0,2.22,Carbon Nylon,1.5,190.28,,13231.3,0.0198252,12.4565,0.224214,0.896856,,,,,
116053,7000,3.7,1S2P,50,19.0,93.0,47.0,147.0,,EMAX ECO Micro Series 1404,1.5,18.8,19.75,9N12P,6000,8.6,1.0,0.12,13.0,Gemfan 5040 R,5.0,4.0,3.0,ABS,,193.4,,12761.6,0.0208634,13.1089,0.19814,0.792559,,,,,
116054,7000,3.7,1S2P,50,19.0,93.0,47.0,147.0,,EMAX ECO Micro Series 1404,1.5,18.8,19.75,9N12P,6000,8.6,1.0,0.12,13.0,6045 plastic,6.0,4.5,6.0,Plastic,,205.4,,9175.96,0.0287895,18.089,0.215566,0.862264,4749.42,0.0085136,5.34925,0.387427,19.6289
116055,7000,3.7,1S2P,50,19.0,93.0,47.0,147.0,,EMAX ECO Micro Series 1404,1.5,18.8,19.75,9N12P,6000,8.6,1.0,0.12,13.0,Gemfan Hurricane 51499,5.1,4.99,5.2,Poly Carbonate,,202.2,,10252,0.0264109,16.5945,0.197784,0.791135,5555.01,0.00850074,5.34117,0.423453,19.6586
116056,7000,3.7,1S2P,50,19.0,93.0,47.0,147.0,,EMAX ECO Micro Series 1404,1.5,18.8,19.75,9N12P,6000,8.6,1.0,0.12,13.0,Carbon Fiber 5030,5.0,3.0,2.18,Carbon Fiber,,190.12,,15658.6,0.0144597,9.08532,0.183697,0.734786,8824.67,0.00500506,3.14476,0.4995,33.3888
116057,7000,3.7,1S2P,50,19.0,93.0,47.0,147.0,,EMAX ECO Micro Series 1404,1.5,18.8,19.75,9N12P,6000,8.6,1.0,0.12,13.0,DALPROP 6040,6.0,4.0,4.32,Nylon,,198.68,,10303.9,0.0262962,16.5224,0.22202,0.88808,5250.18,0.00755381,4.74619,0.390425,22.123
116058,7000,3.7,1S2P,50,19.0,93.0,47.0,147.0,,EMAX ECO Micro Series 1404,1.5,18.8,19.75,9N12P,6000,8.6,1.0,0.12,13.0,Gemfan 6030 Thick hub,6.0,3.0,5.23,Plastic,,202.32,,13231.3,0.0198252,12.4565,0.224214,0.896856,,,,,
116059,7000,3.7,1S2P,50,19.0,93.0,47.0,147.0,,EMAX ECO Micro Series 1404,1.5,18.8,19.75,9N12P,6000,8.6,1.0,0.12,13.0,Gemfan 5050 3-Blades BN,5.0,5.0,5.0,Poly Carbonate,,201.4,,10491.3,0.0258818,16.262,0.195924,0.783696,5713.35,0.00840824,5.28305,0.4287,19.8749
116060,7000,3.7,1S2P,50,19.0,93.0,47.0,147.0,,EMAX ECO Micro Series 1404,1.5,18.8,19.75,9N12P,6000,8.6,1.0,0.12,13.0,KingKong 6040,6.0,4.0,3.38,Plastic,,194.92,,10303.9,0.0262962,16.5224,0.22202,0.88808,5250.18,0.00755381,4.74619,0.390425,22.123
116062,7000,3.7,1S2P,50,19.0,93.0,47.0,147.0,,EMAX ECO Micro Series 1404,1.5,18.8,19.75,9N12P,6000,8.6,1.0,0.12,13.0,T-Motor 5143 Ultra-Light,5.1,4.3,3.7,Poly Carbonate,,196.2,,11746.7,0.0231068,14.5184,0.201329,0.805314,6305.09,0.00730837,4.59199,0.432942,22.8659
116076,7000,3.7,1S2P,50,19.0,93.0,47.0,147.0,,EMAX ECO Micro Series 1106,2.0,14.2,19.9,9N12P,6000,6.7,1.2,0.19,13.0,6030 Carbon Nylon,6.0,3.0,2.22,Carbon Nylon,1.5,182.68,,11407.3,0.0150676,9.46724,0.169651,0.678605,6706.65,0.0056401,3.54378,0.484079,29.6294
116078,7000,3.7,1S2P,50,19.0,93.0,47.0,147.0,,EMAX ECO Micro Series 1106,2.0,14.2,19.9,9N12P,6000,6.7,1.2,0.19,13.0,6045 plastic,6.0,4.5,6.0,Plastic,,197.8,,7610.59,0.0203682,12.7977,0.151657,0.606629,4749.42,0.0085136,5.34925,0.488629,19.6289
116081,7000,3.7,1S2P,50,19.0,93.0,47.0,147.0,,EMAX ECO Micro Series 1106,2.0,14.2,19.9,9N12P,6000,6.7,1.2,0.19,13.0,DALPROP 6040,6.0,4.0,4.32,Nylon,,191.08,,8630.25,0.0189447,11.9033,0.159102,0.636409,5250.18,0.00755377,4.74614,0.480215,22.1232
116082,7000,3.7,1S2P,50,19.0,93.0,47.0,147.0,,EMAX ECO Micro Series 1106,2.0,14.2,19.9,9N12P,6000,6.7,1.2,0.19,13.0,Gemfan 6030 Thick hub,6.0,3.0,5.23,Plastic,,194.72,,11407.3,0.0150676,9.46724,0.169651,0.678605,6706.65,0.0056401,3.54378,0.484079,29.6294
116084,7000,3.7,1S2P,50,19.0,93.0,47.0,147.0,,EMAX ECO Micro Series 1106,2.0,14.2,19.9,9N12P,6000,6.7,1.2,0.19,13.0,KingKong 6040,6.0,4.0,3.38,Plastic,,187.32,,8630.25,0.0189447,11.9033,0.159102,0.636409,5250.18,0.00755377,4.74614,0.480215,22.1232
116085,7000,3.7,1S2P,50,19.0,93.0,47.0,147.0,,EMAX ECO Micro Series 1106,2.0,14.2,19.9,9N12P,6000,6.7,1.2,0.19,13.0,Quanum Carbon Fiber Propeller 6045 Self-Locking,6.0,4.5,6.78,Carbon Fiber,,200.92,,7610.59,0.0203682,12.7977,0.151657,0.606629,4749.42,0.0085136,5.34925,0.488629,19.6289