File: Aldo/Propulsion/Datasets/Combinations.csv
,Capacity (mah),Nominal voltage (V),Cells configuration,Discharge (C),Battery height (mm),Bettry length (mm),Battery width (mm),Battery weight (g),Motor name,Shaft diameter (mm),Motor diameter (mm),Motor height (mm),Magnetic poles,KV (rpm/V),Motor weight (g),No load current (A),Resistance (Ohm),Propeller Name,Propeller diameter (in),Propeller pitch (in),Propeller weight (g),Propeller material,Tests,Peak rotational speed (rpm),Peak torque (Nm),Peak current (A),Peak thrust (kgf),Hovering rotational speed (rpm),Hovering torque (Nm),Hovering current (A),Hovering PWM
4705,800,7.4,2S1P,40,15.0,57.0,30.0,50.0,DYS D2225-12,3.175,22.0,25.0,,2000,32.0,,0.143,Gemfan 5040 R,5.0,4.0,3.0,ABS,8,13427.1,0.0229206,4.80047,0.218009,14278.6,0.0171932,1.82303,1.0
4942,800,7.4,2S1P,40,15.0,57.0,30.0,50.0,DYS D2822-12,3.175,28.0,22.0,,1800,38.0,,0.091,T-Motor 5143 Ultra-Light,5.1,4.3,3.7,Poly Carbonate,3,12517.5,0.0259898,4.89897,0.226881,12950.7,0.0198191,2.25444,1.0
5743,800,11.1,3S1P,40,23.0,52.0,30.0,72.0,DYS D2822-17,3.175,28.0,22.0,,1100,38.0,,0.192,Gemfan 5050 3-Blades BN,5.0,5.0,5.0,Poly Carbonate,6,11467.7,0.030513,3.51485,0.2316,11747.4,0.0254596,2.19036,1.0
6523,850,11.1,3S1P,45,22.2,60.0,30.4,76.0,DYS D2822-17,3.175,28.0,22.0,,1100,38.0,,0.192,Gemfan 5050 3-Blades BN,5.0,5.0,5.0,Poly Carbonate,6,11467.7,0.030513,3.51485,0.2316,11747.4,0.0254596,2.19036,1.0
8604,1000,7.4,2S1P,25,14.0,70.0,36.0,70.0,DYS D2225-12,3.175,22.0,25.0,,2000,32.0,,0.143,6030 Carbon Nylon,6.0,3.0,2.22,Carbon Nylon,16,13557.7,0.0207394,4.34366,0.234726,13958.2,0.0179585,2.94348,1.0
8605,1000,7.4,2S1P,25,14.0,70.0,36.0,70.0,DYS D2225-12,3.175,22.0,25.0,,2000,32.0,,0.143,Gemfan 5040 R,5.0,4.0,3.0,ABS,8,13427.1,0.0229206,4.80047,0.218009,14278.6,0.0171932,1.82303,1.0
8610,1000,7.4,2S1P,25,14.0,70.0,36.0,70.0,DYS D2225-12,3.175,22.0,25.0,,2000,32.0,,0.143,Gemfan 6030 Thick hub,6.0,3.0,5.23,Plastic,7,13557.7,0.0207394,4.34366,0.234726,13958.2,0.0179585,2.94348,1.0
8621,1000,7.4,2S1P,25,14.0,70.0,36.0,70.0,DYS D2225-15,3.175,22.0,25.0,,1600,32.0,,0.203,DALPROP 6040,6.0,4.0,4.32,Nylon,7,10387.4,0.026692,4.47229,0.225416,10908.8,0.0231347,2.86711,1.0
8624,1000,7.4,2S1P,25,14.0,70.0,36.0,70.0,DYS D2225-15,3.175,22.0,25.0,,1600,32.0,,0.203,KingKong 6040,6.0,4.0,3.38,Plastic,5,10387.4,0.026692,4.47229,0.225416,10908.8,0.0231347,2.86711,1.0
8842,1000,7.4,2S1P,25,14.0,70.0,36.0,70.0,DYS D2822-12,3.175,28.0,22.0,,1800,38.0,,0.091,T-Motor 5143 Ultra-Light,5.1,4.3,3.7,Poly Carbonate,3,12517.5,0.0259898,4.89897,0.226881,12950.7,0.0198191,2.25444,1.0
9289,1000,7.4,2S1P,25,14.0,70.0,36.0,70.0,TMOTOR V2207 V2.0,4.0,27.5,31.35,,1950,35.2,,0.05,Gemfan 5040 R,5.0,4.0,3.0,ABS,8,13940.8,0.0245694,5.01715,0.233955,14149.7,0.0196665,2.8753,1.0
10968,1050,11.1,3S1P,45,25.0,75.0,20.0,85.0,DYS D2225-??,3.175,22.0,25.0,,1350,32.0,,,6030 Carbon Nylon,6.0,3.0,2.22,Carbon Nylon,16,14985.0,0.0249584,3.52841,0.283325,14020.1,0.0220668,3.11962,0.935607
10974,1050,11.1,3S1P,45,25.0,75.0,20.0,85.0,DYS D2225-??,3.175,22.0,25.0,,1350,32.0,,,Gemfan 6030 Thick hub,6.0,3.0,5.23,Plastic,7,14985.0,0.0249584,3.52841,0.283325,14020.1,0.0220668,3.11962,0.935607
11748,1050,11.1,3S1P,75,19.0,71.0,36.0,98.0,DYS D2225-??,3.175,22.0,25.0,,1350,32.0,,,6030 Carbon Nylon,6.0,3.0,2.22,Carbon Nylon,16,14985.0,0.0249584,3.52841,0.283325,14020.1,0.0220668,3.11962,0.935607
11754,1050,11.1,3S1P,75,19.0,71.0,36.0,98.0,DYS D2225-??,3.175,22.0,25.0,,1350,32.0,,,Gemfan 6030 Thick hub,6.0,3.0,5.23,Plastic,7,14985.0,0.0249584,3.52841,0.283325,14020.1,0.0220668,3.11962,0.935607
14064,1300,7.4,2S1P,25,17.0,70.0,35.0,88.0,DYS D2225-12,3.175,22.0,25.0,,2000,32.0,,0.143,6030 Carbon Nylon,6.0,3.0,2.22,Carbon Nylon,16,13557.7,0.0207394,4.34366,0.234726,13958.2,0.0179585,2.94348,1.0
14065,1300,7.4,2S1P,25,17.0,70.0,35.0,88.0,DYS D2225-12,3.175,22.0,25.0,,2000,32.0,,0.143,Gemfan 5040 R,5.0,4.0,3.0,ABS,8,13427.1,0.0229206,4.80047,0.218009,14278.6,0.0171932,1.82303,1.0
14070,1300,7.4,2S1P,25,17.0,70.0,35.0,88.0,DYS D2225-12,3.175,22.0,25.0,,2000,32.0,,0.143,Gemfan 6030 Thick hub,6.0,3.0,5.23,Plastic,7,13557.7,0.0207394,4.34366,0.234726,13958.2,0.0179585,2.94348,1.0
14081,1300,7.4,2S1P,25,17.0,70.0,35.0,88.0,DYS D2225-15,3.175,22.0,25.0,,1600,32.0,,0.203,DALPROP 6040,6.0,4.0,4.32,Nylon,7,10387.4,0.026692,4.47229,0.225416,10908.8,0.0231347,2.86711,1.0
14084,1300,7.4,2S1P,25,17.0,70.0,35.0,88.0,DYS D2225-15,3.175,22.0,25.0,,1600,32.0,,0.203,KingKong 6040,6.0,4.0,3.38,Plastic,5,10387.4,0.026692,4.47229,0.225416,10908.8,0.0231347,2.86711,1.0
14604,1300,7.4,2S1P,25,17.0,70.0,35.0,88.0,TMOTOR V2306.5 V2.0,4.0,28.6,30.45,,1950,33.2,,0.067,6030 Carbon Nylon,6.0,3.0,2.22,Carbon Nylon,16,13854.1,0.021586,4.40794,0.244465,13950.3,0.0199201,3.67152,1.0
14610,1300,7.4,2S1P,25,17.0,70.0,35.0,88.0,TMOTOR V2306.5 V2.0,4.0,28.6,30.45,,1950,33.2,,0.067,Gemfan 6030 Thick hub,6.0,3.0,5.23,Plastic,7,13854.1,0.021586,4.40794,0.244465,13950.3,0.0199201,3.67152,1.0
14628,1300,7.4,2S1P,25,17.0,70.0,35.0,88.0,TMOTOR V2307 V2.0,4.0,28.6,30.95,,1950,35.1,,0.067,6030 Carbon Nylon,6.0,3.0,2.22,Carbon Nylon,16,13854.1,0.021586,4.40794,0.244465,13950.3,0.0199201,3.67152,1.0
14634,1300,7.4,2S1P,25,17.0,70.0,35.0,88.0,TMOTOR V2307 V2.0,4.0,28.6,30.95,,1950,35.1,,0.067,Gemfan 6030 Thick hub,6.0,3.0,5.23,Plastic,7,13854.1,0.021586,4.40794,0.244465,13950.3,0.0199201,3.67152,1.0
14749,1300,7.4,2S1P,25,17.0,70.0,35.0,88.0,TMOTOR V2207 V2.0,4.0,27.5,31.35,,1950,35.2,,0.05,Gemfan 5040 R,5.0,4.0,3.0,ABS,8,13940.8,0.0245694,5.01715,0.233955,14149.7,0.0196665,2.8753,1.0
15108,1300,11.1,3S1P,25,24.0,70.0,35.0,115.0,DYS D2812-14,3.175,28.0,12.0,,1600,22.0,,0.27,6030 Carbon Nylon,6.0,3.0,2.22,Carbon Nylon,16,15773.6,0.0274427,4.59806,0.312005,14020.1,0.0220668,3.69733,0.879353
15114,1300,11.1,3S1P,25,24.0,70.0,35.0,115.0,DYS D2812-14,3.175,28.0,12.0,,1600,22.0,,0.27,Gemfan 6030 Thick hub,6.0,3.0,5.23,Plastic,7,15773.6,0.0274427,4.59806,0.312005,14020.1,0.0220668,3.69733,0.879353
15256,1300,11.1,3S1P,25,24.0,70.0,35.0,115.0,DYS Wu,5.0,27.7,18.7,,1750,31.15,,,Carbon Fiber 5030,5.0,3.0,2.18,Carbon Fiber,7,19425.0,0.0215445,3.94824,0.275477,18447.7,0.0195823,3.58864,0.94969
15472,1300,11.1,3S1P,25,24.0,70.0,35.0,115.0,TMOTOR P2505,4.0,30.4,28.8,,1850,31.25,,0.069,Carbon Fiber 5030,5.0,3.0,2.18,Carbon Fiber,7,19974,0.0226845,4.39471,0.290297,18447.7,0.0195823,3.79371,0.921938
15888,1300,11.1,3S1P,25,24.0,70.0,35.0,115.0,DYS D2812-14,3.175,28.0,12.0,,1600,22.0,,0.27,6030 Carbon Nylon,6.0,3.0,2.22,Carbon Nylon,16,15773.6,0.0274427,4.59806,0.312005,14020.1,0.0220668,3.69733,0.879353
15894,1300,11.1,3S1P,25,24.0,70.0,35.0,115.0,DYS D2812-14,3.175,28.0,12.0,,1600,22.0,,0.27,Gemfan 6030 Thick hub,6.0,3.0,5.23,Plastic,7,15773.6,0.0274427,4.59806,0.312005,14020.1,0.0220668,3.69733,0.879353
16036,1300,11.1,3S1P,25,24.0,70.0,35.0,115.0,DYS Wu,5.0,27.7,18.7,,1750,31.15,,,Carbon Fiber 5030,5.0,3.0,2.18,Carbon Fiber,7,19425.0,0.0215445,3.94824,0.275477,18447.7,0.0195823,3.58864,0.94969
16252,1300,11.1,3S1P,25,24.0,70.0,35.0,115.0,TMOTOR P2505,4.0,30.4,28.8,,1850,31.25,,0.069,Carbon Fiber 5030,5.0,3.0,2.18,Carbon Fiber,7,19974,0.0226845,4.39471,0.290297,18447.7,0.0195823,3.79371,0.921938
16668,1300,11.1,3S1P,45,22.6,72.0,36.5,119.0,DYS D2812-14,3.175,28.0,12.0,,1600,22.0,,0.27,6030 Carbon Nylon,6.0,3.0,2.22,Carbon Nylon,16,15773.6,0.0274427,4.59806,0.312005,14020.1,0.0220668,3.69733,0.879353
16674,1300,11.1,3S1P,45,22.6,72.0,36.5,119.0,DYS D2812-14,3.175,28.0,12.0,,1600,22.0,,0.27,Gemfan 6030 Thick hub,6.0,3.0,5.23,Plastic,7,15773.6,0.0274427,4.59806,0.312005,14020.1,0.0220668,3.69733,0.879353
17448,1300,11.1,3S1P,75,22.3,72.0,36.0,122.0,DYS D2812-14,3.175,28.0,12.0,,1600,22.0,,0.27,6030 Carbon Nylon,6.0,3.0,2.22,Carbon Nylon,16,15773.6,0.0274427,4.59806,0.312005,14020.1,0.0220668,3.69733,0.879353
17454,1300,11.1,3S1P,75,22.3,72.0,36.0,122.0,DYS D2812-14,3.175,28.0,12.0,,1600,22.0,,0.27,Gemfan 6030 Thick hub,6.0,3.0,5.23,Plastic,7,15773.6,0.0274427,4.59806,0.312005,14020.1,0.0220668,3.69733,0.879353
18228,1300,11.1,3s1p,75,24.5,72.0,36.0,125.0,DYS D2812-14,3.175,28.0,12.0,,1600,22.0,,0.27,6030 Carbon Nylon,6.0,3.0,2.22,Carbon Nylon,16,15773.6,0.0274427,4.59806,0.312005,14020.1,0.0220668,3.69733,0.879353
18234,1300,11.1,3s1p,75,24.5,72.0,36.0,125.0,DYS D2812-14,3.175,28.0,12.0,,1600,22.0,,0.27,Gemfan 6030 Thick hub,6.0,3.0,5.23,Plastic,7,15773.6,0.0274427,4.59806,0.312005,14020.1,0.0220668,3.69733,0.879353
21868,1400,11.1,3S1P,45,18.7,86.0,35.5,113.0,DYS D2225-12,3.175,22.0,25.0,,2000,32.0,,0.143,Carbon Fiber 5030,5.0,3.0,2.18,Carbon Fiber,7,20742.9,0.0243263,5.09489,0.311659,18447.7,0.0195823,4.1013,0.883816
21876,1400,11.1,3S1P,45,18.7,86.0,35.5,113.0,DYS D2225-15,3.175,22.0,25.0,,1600,32.0,,0.203,6030 Carbon Nylon,6.0,3.0,2.22,Carbon Nylon,16,16192.4,0.0288056,4.82642,0.327758,14020.1,0.0220668,3.69733,0.857036
21888,1400,11.1,3S1P,45,18.7,86.0,35.5,113.0,DYS D2225-??,3.175,22.0,25.0,,1350,32.0,,,6030 Carbon Nylon,6.0,3.0,2.22,Carbon Nylon,16,14985.0,0.0249584,3.52841,0.283325,14020.1,0.0220668,3.11962,0.935607
22128,1400,11.1,3S1P,45,18.7,86.0,35.5,113.0,DYS D2812-14,3.175,28.0,12.0,,1600,22.0,,0.27,6030 Carbon Nylon,6.0,3.0,2.22,Carbon Nylon,16,15773.6,0.0274427,4.59806,0.312005,14020.1,0.0220668,3.69733,0.879353
22134,1400,11.1,3S1P,45,18.7,86.0,35.5,113.0,DYS D2812-14,3.175,28.0,12.0,,1600,22.0,,0.27,Gemfan 6030 Thick hub,6.0,3.0,5.23,Plastic,7,15773.6,0.0274427,4.59806,0.312005,14020.1,0.0220668,3.69733,0.879353
22272,1400,11.1,3S1P,45,18.7,86.0,35.5,113.0,DYS Wu,5.0,27.7,18.7,,1750,31.15,,,6030 Carbon Nylon,6.0,3.0,2.22,Carbon Nylon,16,19425.0,0.0403385,7.39242,0.461497,14020.1,0.0220668,4.04396,0.721754
22276,1400,11.1,3S1P,45,18.7,86.0,35.5,113.0,DYS Wu,5.0,27.7,18.7,,1750,31.15,,,Carbon Fiber 5030,5.0,3.0,2.18,Carbon Fiber,7,19425.0,0.0215445,3.94824,0.275477,18447.7,0.0195823,3.58864,0.94969
22492,1400,11.1,3S1P,45,18.7,86.0,35.5,113.0,TMOTOR P2505,4.0,30.4,28.8,,1850,31.25,,0.069,Carbon Fiber 5030,5.0,3.0,2.18,Carbon Fiber,7,19974,0.0226845,4.39471,0.290297,18447.7,0.0195823,3.79371,0.921938
22576,1400,11.1,3S1P,45,18.7,86.0,35.5,113.0,TMOTOR V2306 V2.0,4.0,27.9,30.3,,1950,32.0,,0.064,Carbon Fiber 5030,5.0,3.0,2.18,Carbon Fiber,7,21010.2,0.0249095,5.0866,0.319253,18447.7,0.0195823,3.99877,0.875342
22908,1400,11.1,3S1P,50,19.5,85.0,35.0,131.0,DYS D2812-14,3.175,28.0,12.0,,1600,22.0,,0.27,6030 Carbon Nylon,6.0,3.0,2.22,Carbon Nylon,16,15773.6,0.0274427,4.59806,0.312005,14020.1,0.0220668,3.69733,0.879353
22914,1400,11.1,3S1P,50,19.5,85.0,35.0,131.0,DYS D2812-14,3.175,28.0,12.0,,1600,22.0,,0.27,Gemfan 6030 Thick hub,6.0,3.0,5.23,Plastic,7,15773.6,0.0274427,4.59806,0.312005,14020.1,0.0220668,3.69733,0.879353
24204,1550,7.4,2S1P,25,17.0,90.0,30.0,102.0,DYS D2225-12,3.175,22.0,25.0,,2000,32.0,,0.143,6030 Carbon Nylon,6.0,3.0,2.22,Carbon Nylon,16,13557.7,0.0207394,4.34366,0.234726,13958.2,0.0179585,2.94348,1.0
24205,1550,7.4,2S1P,25,17.0,90.0,30.0,102.0,DYS D2225-12,3.175,22.0,25.0,,2000,32.0,,0.143,Gemfan 5040 R,5.0,4.0,3.0,ABS,8,13427.1,0.0229206,4.80047,0.218009,14278.6,0.0171932,1.82303,1.0
24221,1550,7.4,2S1P,25,17.0,90.0,30.0,102.0,DYS D2225-15,3.175,22.0,25.0,,1600,32.0,,0.203,DALPROP 6040,6.0,4.0,4.32,Nylon,7,10387.4,0.026692,4.47229,0.225416,10908.8,0.0231347,2.86711,1.0
24224,1550,7.4,2S1P,25,17.0,90.0,30.0,102.0,DYS D2225-15,3.175,22.0,25.0,,1600,32.0,,0.203,KingKong 6040,6.0,4.0,3.38,Plastic,5,10387.4,0.026692,4.47229,0.225416,10908.8,0.0231347,2.86711,1.0
24744,1550,7.4,2S1P,25,17.0,90.0,30.0,102.0,TMOTOR V2306.5 V2.0,4.0,28.6,30.45,,1950,33.2,,0.067,6030 Carbon Nylon,6.0,3.0,2.22,Carbon Nylon,16,13854.1,0.021586,4.40794,0.244465,13950.3,0.0199201,3.67152,1.0
24760,1550,7.4,2S1P,25,17.0,90.0,30.0,102.0,TMOTOR V2306.5 V2.0,4.0,28.6,30.45,,2550,33.8,,0.047,Carbon Fiber 5030,5.0,3.0,2.18,Carbon Fiber,7,18255.3,0.0192061,5.12871,0.24512,18359.1,0.0176863,4.26297,1.0
24804,1550,7.4,2S1P,25,17.0,90.0,30.0,102.0,TMOTOR P2207 V2.0,4.0,28.1,31.0,,1950,33.7,,0.0565,6030 Carbon Nylon,6.0,3.0,2.22,Carbon Nylon,16,13938.8,0.0218309,4.45795,0.247284,13979.4,0.0209881,4.08977,1.0
24838,1550,7.4,2S1P,25,17.0,90.0,30.0,102.0,TMOTOR P2505,4.0,30.4,28.8,,1850,31.25,,0.069,T-Motor 5143 Ultra-Light,5.1,4.3,3.7,Poly Carbonate,3,13000.6,0.0278758,5.40042,0.243621,13102.6,0.0260112,4.60161,1.0
24904,1550,7.4,2S1P,25,17.0,90.0,30.0,102.0,TMOTOR V2207 V2.0,4.0,27.5,31.35,,2550,34.3,,0.043,Carbon Fiber 5030,5.0,3.0,2.18,Carbon Fiber,7,18304.8,0.0193025,5.15446,0.246371,18376.3,0.0181512,4.50295,1.0
25248,1550,11.1,3S1P,25,24.0,91.0,30.0,142.0,DYS D2812-14,3.175,28.0,12.0,,1600,22.0,,0.27,6030 Carbon Nylon,6.0,3.0,2.22,Carbon Nylon,16,15773.6,0.0274427,4.59806,0.312005,14020.1,0.0220668,3.69733,0.879353
25249,1550,11.1,3S1P,25,24.0,91.0,30.0,142.0,DYS D2812-14,3.175,28.0,12.0,,1600,22.0,,0.27,Gemfan 5040 R,5.0,4.0,3.0,ABS,8,15576.5,0.0301667,5.05448,0.288211,14441.5,0.0262266,4.39432,0.920036
26028,1550,11.1,3S1P,45,25.0,72.0,36.5,128.0,DYS D2812-14,3.175,28.0,12.0,,1600,22.0,,0.27,6030 Carbon Nylon,6.0,3.0,2.22,Carbon Nylon,16,15773.6,0.0274427,4.59806,0.312005,14020.1,0.0220668,3.69733,0.879353
26029,1550,11.1,3S1P,45,25.0,72.0,36.5,128.0,DYS D2812-14,3.175,28.0,12.0,,1600,22.0,,0.27,Gemfan 5040 R,5.0,4.0,3.0,ABS,8,15576.5,0.0301667,5.05448,0.288211,14441.5,0.0262266,4.39432,0.920036
26034,1550,11.1,3S1P,45,25.0,72.0,36.5,128.0,DYS D2812-14,3.175,28.0,12.0,,1600,22.0,,0.27,Gemfan 6030 Thick hub,6.0,3.0,5.23,Plastic,7,15773.6,0.0274427,4.59806,0.312005,14020.1,0.0220668,3.69733,0.879353
26808,1550,11.1,3S1P,75,27.0,72.0,36.0,136.0,DYS D2812-14,3.175,28.0,12.0,,1600,22.0,,0.27,6030 Carbon Nylon,6.0,3.0,2.22,Carbon Nylon,16,15773.6,0.0274427,4.59806,0.312005,14020.1,0.0220668,3.69733,0.879353
26809,1550,11.1,3S1P,75,27.0,72.0,36.0,136.0,DYS D2812-14,3.175,28.0,12.0,,1600,22.0,,0.27,Gemfan 5040 R,5.0,4.0,3.0,ABS,8,15576.5,0.0301667,5.05448,0.288211,14441.5,0.0262266,4.39432,0.920036
26814,1550,11.1,3S1P,75,27.0,72.0,36.0,136.0,DYS D2812-14,3.175,28.0,12.0,,1600,22.0,,0.27,Gemfan 6030 Thick hub,6.0,3.0,5.23,Plastic,7,15773.6,0.0274427,4.59806,0.312005,14020.1,0.0220668,3.69733,0.879353
27588,1550,11.1,3S1P,75,27.5,72.0,36.0,136.0,DYS D2812-14,3.175,28.0,12.0,,1600,22.0,,0.27,6030 Carbon Nylon,6.0,3.0,2.22,Carbon Nylon,16,15773.6,0.0274427,4.59806,0.312005,14020.1,0.0220668,3.69733,0.879353
27589,1550,11.1,3S1P,75,27.5,72.0,36.0,136.0,DYS D2812-14,3.175,28.0,12.0,,1600,22.0,,0.27,Gemfan 5040 R,5.0,4.0,3.0,ABS,8,15576.5,0.0301667,5.05448,0.288211,14441.5,0.0262266,4.39432,0.920036
27594,1550,11.1,3S1P,75,27.5,72.0,36.0,136.0,DYS D2812-14,3.175,28.0,12.0,,1600,22.0,,0.27,Gemfan 6030 Thick hub,6.0,3.0,5.23,Plastic,7,15773.6,0.0274427,4.59806,0.312005,14020.1,0.0220668,3.69733,0.879353
32004,1800,7.4,2S1P,25,17.3,89.79,30.2,100.06,DYS D2225-12,3.175,22.0,25.0,,2000,32.0,,0.143,6030 Carbon Nylon,6.0,3.0,2.22,Carbon Nylon,16,13557.7,0.0207394,4.34366,0.234726,13958.2,0.0179585,2.94348,1.0
32005,1800,7.4,2S1P,25,17.3,89.79,30.2,100.06,DYS D2225-12,3.175,22.0,25.0,,2000,32.0,,0.143,Gemfan 5040 R,5.0,4.0,3.0,ABS,8,13427.1,0.0229206,4.80047,0.218009,14278.6,0.0171932,1.82303,1.0
32010,1800,7.4,2S1P,25,17.3,89.79,30.2,100.06,DYS D2225-12,3.175,22.0,25.0,,2000,32.0,,0.143,Gemfan 6030 Thick hub,6.0,3.0,5.23,Plastic,7,13557.7,0.0207394,4.34366,0.234726,13958.2,0.0179585,2.94348,1.0
32021,1800,7.4,2S1P,25,17.3,89.79,30.2,100.06,DYS D2225-15,3.175,22.0,25.0,,1600,32.0,,0.203,DALPROP 6040,6.0,4.0,4.32,Nylon,7,10387.4,0.026692,4.47229,0.225416,10908.8,0.0231347,2.86711,1.0
32024,1800,7.4,2S1P,25,17.3,89.79,30.2,100.06,DYS D2225-15,3.175,22.0,25.0,,1600,32.0,,0.203,KingKong 6040,6.0,4.0,3.38,Plastic,5,10387.4,0.026692,4.47229,0.225416,10908.8,0.0231347,2.86711,1.0
32350,1800,7.4,2S1P,25,17.3,89.79,30.2,100.06,DYS Shu,5.0,28.5,17.0,,1750,33.59,,,T-Motor 5143 Ultra-Light,5.1,4.3,3.7,Poly Carbonate,3,12950.0,0.0276753,5.07176,0.24184,12950,0.0276753,5.07176,1.0
32356,1800,7.4,2S1P,25,17.3,89.79,30.2,100.06,DYS Shu,5.0,28.5,17.0,,2500,33.59,,,Carbon Fiber 5030,5.0,3.0,2.18,Carbon Fiber,7,18500.0,0.019685,5.15353,0.251333,18447.7,0.0195823,5.12663,0.997175
32388,1800,7.4,2S1P,25,17.3,89.79,30.2,100.06,DYS wei,5.0,27.7,18.2,,2300,34.71,,,6030 Carbon Nylon,6.0,3.0,2.22,Carbon Nylon,16,17020.0,0.0315884,7.60823,0.35996,14020.1,0.0220668,5.31491,0.823741
32404,1800,7.4,2S1P,25,17.3,89.79,30.2,100.06,DYS wei,5.0,27.7,18.2,,2600,34.71,,,Carbon Fiber 5030,5.0,3.0,2.18,Carbon Fiber,7,19240.0,0.0211665,5.76302,0.270566,18447.7,0.0195823,5.3317,0.958822
32422,1800,7.4,2S1P,25,17.3,89.79,30.2,100.06,DYS Wu,5.0,27.7,18.7,,1750,31.15,,,T-Motor 5143 Ultra-Light,5.1,4.3,3.7,Poly Carbonate,3,12950.0,0.0276753,5.07176,0.24184,12950,0.0276753,5.07176,1.0
32544,1800,7.4,2S1P,25,17.3,89.79,30.2,100.06,TMOTOR V2306.5 V2.0,4.0,28.6,30.45,,1950,33.2,,0.067,6030 Carbon Nylon,6.0,3.0,2.22,Carbon Nylon,16,13854.1,0.021586,4.40794,0.244465,13950.3,0.0199201,3.67152,1.0
32560,1800,7.4,2S1P,25,17.3,89.79,30.2,100.06,TMOTOR V2306.5 V2.0,4.0,28.6,30.45,,2550,33.8,,0.047,Carbon Fiber 5030,5.0,3.0,2.18,Carbon Fiber,7,18255.3,0.0192061,5.12871,0.24512,18359.1,0.0176863,4.26297,1.0
32568,1800,7.4,2S1P,25,17.3,89.79,30.2,100.06,TMOTOR V2307 V2.0,4.0,28.6,30.95,,1950,35.1,,0.067,6030 Carbon Nylon,6.0,3.0,2.22,Carbon Nylon,16,13854.1,0.021586,4.40794,0.244465,13950.3,0.0199201,3.67152,1.0
32604,1800,7.4,2S1P,25,17.3,89.79,30.2,100.06,TMOTOR P2207 V2.0,4.0,28.1,31.0,,1950,33.7,,0.0565,6030 Carbon Nylon,6.0,3.0,2.22,Carbon Nylon,16,13938.8,0.0218309,4.45795,0.247284,13979.4,0.0209881,4.08977,1.0
32638,1800,7.4,2S1P,25,17.3,89.79,30.2,100.06,TMOTOR P2505,4.0,30.4,28.8,,1850,31.25,,0.069,T-Motor 5143 Ultra-Light,5.1,4.3,3.7,Poly Carbonate,3,13000.6,0.0278758,5.40042,0.243621,13102.6,0.0260112,4.60161,1.0
32704,1800,7.4,2S1P,25,17.3,89.79,30.2,100.06,TMOTOR V2207 V2.0,4.0,27.5,31.35,,2550,34.3,,0.043,Carbon Fiber 5030,5.0,3.0,2.18,Carbon Fiber,7,18304.8,0.0193025,5.15446,0.246371,18376.3,0.0181512,4.50295,1.0
32712,1800,7.4,2S1P,25,17.3,89.79,30.2,100.06,TMOTOR V2306 V2.0,4.0,27.9,30.3,,1950,32.0,,0.064,6030 Carbon Nylon,6.0,3.0,2.22,Carbon Nylon,16,13878.1,0.0216553,4.42209,0.245263,13785.4,0.0204406,5.16501,1.0
32718,1800,7.4,2S1P,25,17.3,89.79,30.2,100.06,TMOTOR V2306 V2.0,4.0,27.9,30.3,,1950,32.0,,0.064,Gemfan 6030 Thick hub,6.0,3.0,5.23,Plastic,7,13878.1,0.0216553,4.42209,0.245263,13785.4,0.0204406,5.16501,1.0
49152,2700,11.1,3S1P,25,26.0,106.0,33.0,194.0,DYS D1410,,14.0,10.5,,3500,5.0,,,6030 Carbon Nylon,6.0,3.0,2.22,Carbon Nylon,16,38850.0,0.14542,53.2994,1.69865,14020.1,0.0220668,8.08791,0.360877
49156,2700,11.1,3S1P,25,26.0,106.0,33.0,194.0,DYS D1410,,14.0,10.5,,3500,5.0,,,Carbon Fiber 5030,5.0,3.0,2.18,Carbon Fiber,7,38850.0,0.077668,28.4668,1.01396,18447.7,0.0195823,7.17728,0.474845
49158,2700,11.1,3S1P,25,26.0,106.0,33.0,194.0,DYS D1410,,14.0,10.5,,3500,5.0,,,Gemfan 6030 Thick hub,6.0,3.0,5.23,Plastic,7,38850.0,0.14542,53.2994,1.69865,14020.1,0.0220668,8.08791,0.360877
53820,3500,7.4,2S1P,60,18.8,92.8,46.5,149.0,DYS D1410,,14.0,10.5,,4000,5.0,,,6030 Carbon Nylon,6.0,3.0,2.22,Carbon Nylon,16,29600.0,0.087931,36.8324,1.01878,14020.1,0.0220668,9.24333,0.473651
53824,3500,7.4,2S1P,60,18.8,92.8,46.5,149.0,DYS D1410,,14.0,10.5,,4000,5.0,,,Carbon Fiber 5030,5.0,3.0,2.18,Carbon Fiber,7,29600.0,0.0469633,19.6719,0.608129,18447.7,0.0195823,8.20261,0.623234
53826,3500,7.4,2S1P,60,18.8,92.8,46.5,149.0,DYS D1410,,14.0,10.5,,4000,5.0,,,Gemfan 6030 Thick hub,6.0,3.0,5.23,Plastic,7,29600.0,0.087931,36.8324,1.01878,14020.1,0.0220668,9.24333,0.473651
53831,3500,7.4,2S1P,60,18.8,92.8,46.5,149.0,DYS D1410,,14.0,10.5,,4000,5.0,,,Gemfan 3052 - Flash,3.0,5.2,1.6,Poly Carbonate,4,29600.0,0.0336747,14.1056,0.345442,24922.5,0.0244968,10.2612,0.841978
53832,3500,7.4,2S1P,60,18.8,92.8,46.5,149.0,DYS D1410,,14.0,10.5,,3500,5.0,,,6030 Carbon Nylon,6.0,3.0,2.22,Carbon Nylon,16,25900.0,0.0686842,25.1741,0.792599,14020.1,0.0220668,8.08791,0.541315
53833,3500,7.4,2S1P,60,18.8,92.8,46.5,149.0,DYS D1410,,14.0,10.5,,3500,5.0,,,Gemfan 5040 R,5.0,4.0,3.0,ABS,8,25900.0,0.0772796,28.3244,0.749674,14441.5,0.0262266,9.61257,0.557587
53836,3500,7.4,2S1P,60,18.8,92.8,46.5,149.0,DYS D1410,,14.0,10.5,,3500,5.0,,,Carbon Fiber 5030,5.0,3.0,2.18,Carbon Fiber,7,25900.0,0.0366837,13.4453,0.473119,18447.7,0.0195823,7.17728,0.712268
53838,3500,7.4,2S1P,60,18.8,92.8,46.5,149.0,DYS D1410,,14.0,10.5,,3500,5.0,,,Gemfan 6030 Thick hub,6.0,3.0,5.23,Plastic,7,25900.0,0.0686842,25.1741,0.792599,14020.1,0.0220668,8.08791,0.541315
53842,3500,7.4,2S1P,60,18.8,92.8,46.5,149.0,DYS D1410,,14.0,10.5,,3500,5.0,,,T-Motor 5143 Ultra-Light,5.1,4.3,3.7,Poly Carbonate,3,25900.0,0.0997693,36.5674,0.890153,13180.6,0.0285939,10.4802,0.508904
53843,3500,7.4,2S1P,60,18.8,92.8,46.5,149.0,DYS D1410,,14.0,10.5,,3500,5.0,,,Gemfan 3052 - Flash,3.0,5.2,1.6,Poly Carbonate,4,25900.0,0.0263038,9.64084,0.268751,24922.5,0.0244968,8.97855,0.96226
54288,3500,7.4,2S1P,60,18.8,92.8,46.5,149.0,DYS BE1104,1.5,14.0,12.5,,4000,5.6,,,6030 Carbon Nylon,6.0,3.0,2.22,Carbon Nylon,16,29600.0,0.087931,36.8324,1.01878,14020.1,0.0220668,9.24333,0.473651
54292,3500,7.4,2S1P,60,18.8,92.8,46.5,149.0,DYS BE1104,1.5,14.0,12.5,,4000,5.6,,,Carbon Fiber 5030,5.0,3.0,2.18,Carbon Fiber,7,29600.0,0.0469633,19.6719,0.608129,18447.7,0.0195823,8.20261,0.623234
54294,3500,7.4,2S1P,60,18.8,92.8,46.5,149.0,DYS BE1104,1.5,14.0,12.5,,4000,5.6,,,Gemfan 6030 Thick hub,6.0,3.0,5.23,Plastic,7,29600.0,0.087931,36.8324,1.01878,14020.1,0.0220668,9.24333,0.473651
54299,3500,7.4,2S1P,60,18.8,92.8,46.5,149.0,DYS BE1104,1.5,14.0,12.5,,4000,5.6,,,Gemfan 3052 - Flash,3.0,5.2,1.6,Poly Carbonate,4,29600.0,0.0336747,14.1056,0.345442,24922.5,0.0244968,10.2612,0.841978
54588,3500,7.4,2S1P,60,18.8,92.8,46.5,149.0,TMOTOR F15,1.5,14.4,13.3,,4500,7.8,,0.197,6030 Carbon Nylon,6.0,3.0,2.22,Carbon Nylon,16,18264.1,0.0359923,16.961,0.411013,14020.1,0.0220668,10.3987,0.697854
54592,3500,7.4,2S1P,60,18.8,92.8,46.5,149.0,TMOTOR F15,1.5,14.4,13.3,,4500,7.8,,0.197,Carbon Fiber 5030,5.0,3.0,2.18,Carbon Fiber,7,21984.1,0.0270875,12.7647,0.347641,18447.7,0.0195823,9.22794,0.799649
54594,3500,7.4,2S1P,60,18.8,92.8,46.5,149.0,TMOTOR F15,1.5,14.4,13.3,,4500,7.8,,0.197,Gemfan 6030 Thick hub,6.0,3.0,5.23,Plastic,7,18264.1,0.0359923,16.961,0.411013,14020.1,0.0220668,10.3987,0.697854
54599,3500,7.4,2S1P,60,18.8,92.8,46.5,149.0,TMOTOR F15,1.5,14.4,13.3,,4500,7.8,,0.197,Gemfan 3052 - Flash,3.0,5.2,1.6,Poly Carbonate,4,23859.3,0.0225986,10.6494,0.230327,24896.8,0.0222826,9.47902,1.0
91260,7000,3.7,1S2P,50,19.0,93.0,47.0,147.0,DYS D1410,,14.0,10.5,,4000,5.0,,,6030 Carbon Nylon,6.0,3.0,2.22,Carbon Nylon,16,14800.0,0.0243914,10.217,0.276785,14020.1,0.0220668,9.24333,0.947302
91261,7000,3.7,1S2P,50,19.0,93.0,47.0,147.0,DYS D1410,,14.0,10.5,,4000,5.0,,,Gemfan 5040 R,5.0,4.0,3.0,ABS,8,14800.0,0.0274438,11.4956,0.261795,14441.5,0.0262266,10.9858,0.975777
91262,7000,3.7,1S2P,50,19.0,93.0,47.0,147.0,DYS D1410,,14.0,10.5,,4000,5.0,,,6045 plastic,6.0,4.5,6.0,Plastic,9,14800.0,0.0697128,29.2012,0.529527,9928.53,0.0333093,13.9526,0.670847
91263,7000,3.7,1S2P,50,19.0,93.0,47.0,147.0,DYS D1410,,14.0,10.5,,4000,5.0,,,Gemfan Hurricane 51499,5.1,4.99,5.2,Poly Carbonate,8,14800.0,0.0520923,21.8204,0.394425,11612.6,0.033259,13.9315,0.784635
91265,7000,3.7,1S2P,50,19.0,93.0,47.0,147.0,DYS D1410,,14.0,10.5,,4000,5.0,,,DALPROP 6040,6.0,4.0,4.32,Nylon,7,14800.0,0.051384,21.5237,0.438575,10975.4,0.0295542,12.3796,0.741579
91266,7000,3.7,1S2P,50,19.0,93.0,47.0,147.0,DYS D1410,,14.0,10.5,,4000,5.0,,,Gemfan 6030 Thick hub,6.0,3.0,5.23,Plastic,7,14800.0,0.0243914,10.217,0.276785,14020.1,0.0220668,9.24333,0.947302
91267,7000,3.7,1S2P,50,19.0,93.0,47.0,147.0,DYS D1410,,14.0,10.5,,4000,5.0,,,Gemfan 5050 3-Blades BN,5.0,5.0,5.0,Poly Carbonate,6,14800.0,0.0489149,20.4894,0.374125,11943.6,0.0328971,13.7799,0.807001
91268,7000,3.7,1S2P,50,19.0,93.0,47.0,147.0,DYS D1410,,14.0,10.5,,4000,5.0,,,KingKong 6040,6.0,4.0,3.38,Plastic,5,14800.0,0.051384,21.5237,0.438575,10975.4,0.0295542,12.3796,0.741579
91269,7000,3.7,1S2P,50,19.0,93.0,47.0,147.0,DYS D1410,,14.0,10.5,,4000,5.0,,,Quanum Carbon Fiber Propeller 6045 Self-Locking,6.0,4.5,6.78,Carbon Fiber,4,14800.0,0.0697128,29.2012,0.529527,9928.53,0.0333093,13.9526,0.670847
91270,7000,3.7,1S2P,50,19.0,93.0,47.0,147.0,DYS D1410,,14.0,10.5,,4000,5.0,,,T-Motor 5143 Ultra-Light,5.1,4.3,3.7,Poly Carbonate,3,14800.0,0.0354305,14.8411,0.310852,13180.6,0.0285939,11.9774,0.890582
91274,7000,3.7,1S2P,50,19.0,93.0,47.0,147.0,DYS D1410,,14.0,10.5,,3500,5.0,,,6045 plastic,6.0,4.5,6.0,Plastic,9,12950.0,0.0544537,19.9583,0.411968,9928.53,0.0333093,12.2085,0.766682
91275,7000,3.7,1S2P,50,19.0,93.0,47.0,147.0,DYS D1410,,14.0,10.5,,3500,5.0,,,Gemfan Hurricane 51499,5.1,4.99,5.2,Poly Carbonate,8,12950.0,0.0406901,14.9137,0.306859,11612.6,0.033259,12.1901,0.896726
91277,7000,3.7,1S2P,50,19.0,93.0,47.0,147.0,DYS D1410,,14.0,10.5,,3500,5.0,,,DALPROP 6040,6.0,4.0,4.32,Nylon,7,12950.0,0.0401368,14.7109,0.341208,10975.4,0.0295542,10.8322,0.847519
91279,7000,3.7,1S2P,50,19.0,93.0,47.0,147.0,DYS D1410,,14.0,10.5,,3500,5.0,,,Gemfan 5050 3-Blades BN,5.0,5.0,5.0,Poly Carbonate,6,12950.0,0.0382082,14.004,0.291066,11943.6,0.0328971,12.0574,0.922287
91280,7000,3.7,1S2P,50,19.0,93.0,47.0,147.0,DYS D1410,,14.0,10.5,,3500,5.0,,,KingKong 6040,6.0,4.0,3.38,Plastic,5,12950.0,0.0401368,14.7109,0.341208,10975.4,0.0295542,10.8322,0.847519
91281,7000,3.7,1S2P,50,19.0,93.0,47.0,147.0,DYS D1410,,14.0,10.5,,3500,5.0,,,Quanum Carbon Fiber Propeller 6045 Self-Locking,6.0,4.5,6.78,Carbon Fiber,4,12950.0,0.0544537,19.9583,0.411968,9928.53,0.0333093,12.2085,0.766682
91282,7000,3.7,1S2P,50,19.0,93.0,47.0,147.0,DYS D1410,,14.0,10.5,,3500,5.0,,,T-Motor 5143 Ultra-Light,5.1,4.3,3.7,Poly Carbonate,3,12950.0,0.0276753,10.1435,0.24184,12950,0.0276753,10.1435,1.0
91728,7000,3.7,1S2P,50,19.0,93.0,47.0,147.0,DYS BE1104,1.5,14.0,12.5,,4000,5.6,,,6030 Carbon Nylon,6.0,3.0,2.22,Carbon Nylon,16,14800.0,0.0243914,10.217,0.276785,14020.1,0.0220668,9.24333,0.947302
91729,7000,3.7,1S2P,50,19.0,93.0,47.0,147.0,DYS BE1104,1.5,14.0,12.5,,4000,5.6,,,Gemfan 5040 R,5.0,4.0,3.0,ABS,8,14800.0,0.0274438,11.4956,0.261795,14441.5,0.0262266,10.9858,0.975777
91730,7000,3.7,1S2P,50,19.0,93.0,47.0,147.0,DYS BE1104,1.5,14.0,12.5,,4000,5.6,,,6045 plastic,6.0,4.5,6.0,Plastic,9,14800.0,0.0697128,29.2012,0.529527,9928.53,0.0333093,13.9526,0.670847
91731,7000,3.7,1S2P,50,19.0,93.0,47.0,147.0,DYS BE1104,1.5,14.0,12.5,,4000,5.6,,,Gemfan Hurricane 51499,5.1,4.99,5.2,Poly Carbonate,8,14800.0,0.0520923,21.8204,0.394425,11612.6,0.033259,13.9315,0.784635
91733,7000,3.7,1S2P,50,19.0,93.0,47.0,147.0,DYS BE1104,1.5,14.0,12.5,,4000,5.6,,,DALPROP 6040,6.0,4.0,4.32,Nylon,7,14800.0,0.051384,21.5237,0.438575,10975.4,0.0295542,12.3796,0.741579
91734,7000,3.7,1S2P,50,19.0,93.0,47.0,147.0,DYS BE1104,1.5,14.0,12.5,,4000,5.6,,,Gemfan 6030 Thick hub,6.0,3.0,5.23,Plastic,7,14800.0,0.0243914,10.217,0.276785,14020.1,0.0220668,9.24333,0.947302
91735,7000,3.7,1S2P,50,19.0,93.0,47.0,147.0,DYS BE1104,1.5,14.0,12.5,,4000,5.6,,,Gemfan 5050 3-Blades BN,5.0,5.0,5.0,Poly Carbonate,6,14800.0,0.0489149,20.4894,0.374125,11943.6,0.0328971,13.7799,0.807001
91736,7000,3.7,1S2P,50,19.0,93.0,47.0,147.0,DYS BE1104,1.5,14.0,12.5,,4000,5.6,,,KingKong 6040,6.0,4.0,3.38,Plastic,5,14800.0,0.051384,21.5237,0.438575,10975.4,0.0295542,12.3796,0.741579
91737,7000,3.7,1S2P,50,19.0,93.0,47.0,147.0,DYS BE1104,1.5,14.0,12.5,,4000,5.6,,,Quanum Carbon Fiber Propeller 6045 Self-Locking,6.0,4.5,6.78,Carbon Fiber,4,14800.0,0.0697128,29.2012,0.529527,9928.53,0.0333093,13.9526,0.670847
91738,7000,3.7,1S2P,50,19.0,93.0,47.0,147.0,DYS BE1104,1.5,14.0,12.5,,4000,5.6,,,T-Motor 5143 Ultra-Light,5.1,4.3,3.7,Poly Carbonate,3,14800.0,0.0354305,14.8411,0.310852,13180.6,0.0285939,11.9774,0.890582
91740,7000,3.7,1S2P,50,19.0,93.0,47.0,147.0,DYS BE1104,1.5,14.0,12.5,,5400,5.6,,,6030 Carbon Nylon,6.0,3.0,2.22,Carbon Nylon,16,19980.0,0.0424966,24.0312,0.486597,14020.1,0.0220668,12.4785,0.701705
91741,7000,3.7,1S2P,50,19.0,93.0,47.0,147.0,DYS BE1104,1.5,14.0,12.5,,5400,5.6,,,Gemfan 5040 R,5.0,4.0,3.0,ABS,8,19980.0,0.0478147,27.0386,0.460244,14441.5,0.0262266,14.8308,0.722798
91742,7000,3.7,1S2P,50,19.0,93.0,47.0,147.0,DYS BE1104,1.5,14.0,12.5,,5400,5.6,,,6045 plastic,6.0,4.5,6.0,Plastic,9,19980.0,0.121459,68.6835,0.930927,9928.53,0.0333093,18.836,0.496924
91743,7000,3.7,1S2P,50,19.0,93.0,47.0,147.0,DYS BE1104,1.5,14.0,12.5,,5400,5.6,,,Gemfan Hurricane 51499,5.1,4.99,5.2,Poly Carbonate,8,19980.0,0.0907593,51.3232,0.693413,11612.6,0.033259,18.8075,0.581211
91744,7000,3.7,1S2P,50,19.0,93.0,47.0,147.0,DYS BE1104,1.5,14.0,12.5,,5400,5.6,,,Carbon Fiber 5030,5.0,3.0,2.18,Carbon Fiber,7,19980.0,0.0226971,12.8349,0.29046,18447.7,0.0195823,11.0735,0.92331
91745,7000,3.7,1S2P,50,19.0,93.0,47.0,147.0,DYS BE1104,1.5,14.0,12.5,,5400,5.6,,,DALPROP 6040,6.0,4.0,4.32,Nylon,7,19980.0,0.0895252,50.6253,0.77103,10975.4,0.0295542,16.7125,0.549318
91746,7000,3.7,1S2P,50,19.0,93.0,47.0,147.0,DYS BE1104,1.5,14.0,12.5,,5400,5.6,,,Gemfan 6030 Thick hub,6.0,3.0,5.23,Plastic,7,19980.0,0.0424966,24.0312,0.486597,14020.1,0.0220668,12.4785,0.701705
91747,7000,3.7,1S2P,50,19.0,93.0,47.0,147.0,DYS BE1104,1.5,14.0,12.5,,5400,5.6,,,Gemfan 5050 3-Blades BN,5.0,5.0,5.0,Poly Carbonate,6,19980.0,0.0852234,48.1927,0.657725,11943.6,0.0328971,18.6029,0.597778
91748,7000,3.7,1S2P,50,19.0,93.0,47.0,147.0,DYS BE1104,1.5,14.0,12.5,,5400,5.6,,,KingKong 6040,6.0,4.0,3.38,Plastic,5,19980.0,0.0895252,50.6253,0.77103,10975.4,0.0295542,16.7125,0.549318
91749,7000,3.7,1S2P,50,19.0,93.0,47.0,147.0,DYS BE1104,1.5,14.0,12.5,,5400,5.6,,,Quanum Carbon Fiber Propeller 6045 Self-Locking,6.0,4.5,6.78,Carbon Fiber,4,19980.0,0.121459,68.6835,0.930927,9928.53,0.0333093,18.836,0.496924
91750,7000,3.7,1S2P,50,19.0,93.0,47.0,147.0,DYS BE1104,1.5,14.0,12.5,,5400,5.6,,,T-Motor 5143 Ultra-Light,5.1,4.3,3.7,Poly Carbonate,3,19980.0,0.0617297,34.9073,0.546488,13180.6,0.0285939,16.1695,0.65969
91752,7000,3.7,1S2P,50,19.0,93.0,47.0,147.0,DYS BE1104,1.5,14.0,12.5,,6500,5.6,,,6030 Carbon Nylon,6.0,3.0,2.22,Carbon Nylon,16,24050.0,0.0598846,40.7621,0.689519,14020.1,0.0220668,15.0204,0.582955
91753,7000,3.7,1S2P,50,19.0,93.0,47.0,147.0,DYS BE1104,1.5,14.0,12.5,,6500,5.6,,,Gemfan 5040 R,5.0,4.0,3.0,ABS,8,24050.0,0.0673787,45.8633,0.652177,14441.5,0.0262266,17.8519,0.600478
91756,7000,3.7,1S2P,50,19.0,93.0,47.0,147.0,DYS BE1104,1.5,14.0,12.5,,6500,5.6,,,Carbon Fiber 5030,5.0,3.0,2.18,Carbon Fiber,7,24050.0,0.0319839,21.7708,0.411589,18447.7,0.0195823,13.3292,0.767058
91757,7000,3.7,1S2P,50,19.0,93.0,47.0,147.0,DYS BE1104,1.5,14.0,12.5,,6500,5.6,,,DALPROP 6040,6.0,4.0,4.32,Nylon,7,24050.0,0.126156,85.8714,1.09257,10975.4,0.0295542,20.1169,0.456356
91758,7000,3.7,1S2P,50,19.0,93.0,47.0,147.0,DYS BE1104,1.5,14.0,12.5,,6500,5.6,,,Gemfan 6030 Thick hub,6.0,3.0,5.23,Plastic,7,24050.0,0.0598846,40.7621,0.689519,14020.1,0.0220668,15.0204,0.582955
91760,7000,3.7,1S2P,50,19.0,93.0,47.0,147.0,DYS BE1104,1.5,14.0,12.5,,6500,5.6,,,KingKong 6040,6.0,4.0,3.38,Plastic,5,24050.0,0.126156,85.8714,1.09257,10975.4,0.0295542,20.1169,0.456356
91762,7000,3.7,1S2P,50,19.0,93.0,47.0,147.0,DYS BE1104,1.5,14.0,12.5,,6500,5.6,,,T-Motor 5143 Ultra-Light,5.1,4.3,3.7,Poly Carbonate,3,24050.0,0.0869872,59.2103,0.774386,13180.6,0.0285939,19.4633,0.54805
91764,7000,3.7,1S2P,50,19.0,93.0,47.0,147.0,DYS BE1104,1.5,14.0,12.5,,7500,5.6,,,6030 Carbon Nylon,6.0,3.0,2.22,Carbon Nylon,16,27750.0,0.0780349,61.2884,0.902369,14020.1,0.0220668,17.3312,0.505228
91765,7000,3.7,1S2P,50,19.0,93.0,47.0,147.0,DYS BE1104,1.5,14.0,12.5,,7500,5.6,,,Gemfan 5040 R,5.0,4.0,3.0,ABS,8,27750.0,0.0878004,68.9583,0.8535,14441.5,0.0262266,20.5984,0.520414
91768,7000,3.7,1S2P,50,19.0,93.0,47.0,147.0,DYS BE1104,1.5,14.0,12.5,,7500,5.6,,,Carbon Fiber 5030,5.0,3.0,2.18,Carbon Fiber,7,27750.0,0.0416778,32.7337,0.538644,18447.7,0.0195823,15.3799,0.664783
91770,7000,3.7,1S2P,50,19.0,93.0,47.0,147.0,DYS BE1104,1.5,14.0,12.5,,7500,5.6,,,Gemfan 6030 Thick hub,6.0,3.0,5.23,Plastic,7,27750.0,0.0780349,61.2884,0.902369,14020.1,0.0220668,17.3312,0.505228
91775,7000,3.7,1S2P,50,19.0,93.0,47.0,147.0,DYS BE1104,1.5,14.0,12.5,,7500,5.6,,,Gemfan 3052 - Flash,3.0,5.2,1.6,Poly Carbonate,4,27750.0,0.0298848,23.4715,0.305971,24922.5,0.0244968,19.2397,0.89811
91780,7000,3.7,1S2P,50,19.0,93.0,47.0,147.0,DYS BE1104,1.5,14.0,12.5,,10000,5.6,,,Carbon Fiber 5030,5.0,3.0,2.18,Carbon Fiber,7,37000.0,0.0709646,74.314,0.925095,18447.7,0.0195823,20.5065,0.498588
91930,7000,3.7,1S2P,50,19.0,93.0,47.0,147.0,TMOTOR F1203,2.0,15.5,14.05,,7000,4.45,,0.198,T-Motor 5143 Ultra-Light,5.1,4.3,3.7,Poly Carbonate,3,9633.6,0.0160104,11.7362,0.13867,13149.3,0.0205092,9.19965,1.0
92017,7000,3.7,1S2P,50,19.0,93.0,47.0,147.0,TMOTOR F1103,1.5,14.4,14.0,,8000,5.3,,0.163,Gemfan 5040 R,5.0,4.0,3.0,ABS,8,11325.3,0.0167284,14.0143,0.158301,14416.8,0.020021,11.6436,1.0
92020,7000,3.7,1S2P,50,19.0,93.0,47.0,147.0,TMOTOR F1103,1.5,14.4,14.0,,8000,5.3,,0.163,Carbon Fiber 5030,5.0,3.0,2.18,Carbon Fiber,7,15003.8,0.0133611,11.1934,0.169522,18691.8,0.0147697,8.36515,1.0
92026,7000,3.7,1S2P,50,19.0,93.0,47.0,147.0,TMOTOR F1103,1.5,14.4,14.0,,8000,5.3,,0.163,T-Motor 5143 Ultra-Light,5.1,4.3,3.7,Poly Carbonate,3,10191.1,0.0177666,14.8841,0.154141,13156.3,0.0217711,12.6102,1.0